%time,field.header.seq,field.header.stamp,field.header.frame_id,field.orientation.x,field.orientation.y,field.orientation.z,field.orientation.w,field.orientation_covariance0,field.orientation_covariance1,field.orientation_covariance2,field.orientation_covariance3,field.orientation_covariance4,field.orientation_covariance5,field.orientation_covariance6,field.orientation_covariance7,field.orientation_covariance8,field.angular_velocity.x,field.angular_velocity.y,field.angular_velocity.z,field.angular_velocity_covariance0,field.angular_velocity_covariance1,field.angular_velocity_covariance2,field.angular_velocity_covariance3,field.angular_velocity_covariance4,field.angular_velocity_covariance5,field.angular_velocity_covariance6,field.angular_velocity_covariance7,field.angular_velocity_covariance8,field.linear_acceleration.x,field.linear_acceleration.y,field.linear_acceleration.z,field.linear_acceleration_covariance0,field.linear_acceleration_covariance1,field.linear_acceleration_covariance2,field.linear_acceleration_covariance3,field.linear_acceleration_covariance4,field.linear_acceleration_covariance5,field.linear_acceleration_covariance6,field.linear_acceleration_covariance7,field.linear_acceleration_covariance8
1753722552917925867,142591,1753722552917925867,imu_link,0.0,0.0,0.0,0.0,-1.0,0.0,0.0,0.0,0.0,0.0,0.0,0.0,0.0,0.030870856344389148,-0.010493388939008464,0.004320070687844953,0.0,0.0,0.0,0.0,0.0,0.0,0.0,0.0,0.0,-0.504074499268799,0.6429063526757814,10.50885426345337,0.0,0.0,0.0,0.0,0.0,0.0,0.0,0.0,0.0
1753722552922877867,142592,1753722552922877867,imu_link,0.0,0.0,0.0,0.0,-1.0,0.0,0.0,0.0,0.0,0.0,0.0,0.0,0.0,0.014090537201689434,-0.01152914774247629,0.0043995498265343574,0.0,0.0,0.0,0.0,0.0,0.0,0.0,0.0,0.0,-0.2937110828613282,0.679153967260132,10.508080397621768,0.0,0.0,0.0,0.0,0.0,0.0,0.0,0.0,0.0
1753722552927929710,142593,1753722552927929710,imu_link,0.0,0.0,0.0,0.0,-1.0,0.0,0.0,0.0,0.0,0.0,0.0,0.0,0.0,0.006977285429364843,-0.012962548379791201,0.004850721144762497,0.0,0.0,0.0,0.0,0.0,0.0,0.0,0.0,0.0,-0.25581553927429207,0.7012851892910769,10.429977409469608,0.0,0.0,0.0,0.0,0.0,0.0,0.0,0.0,0.0
1753722552932762212,142594,1753722552932762212,imu_link,0.0,0.0,0.0,0.0,-1.0,0.0,0.0,0.0,0.0,0.0,0.0,0.0,0.0,0.010973891315729433,-0.012974718206784515,0.004641465488911666,0.0,0.0,0.0,0.0,0.0,0.0,0.0,0.0,0.0,-0.2715927296643067,0.6372726166043092,10.33612500366669,0.0,0.0,0.0,0.0,0.0,0.0,0.0,0.0,0.0
1753722552937884020,142595,1753722552937884020,imu_link,0.0,0.0,0.0,0.0,-1.0,0.0,0.0,0.0,0.0,0.0,0.0,0.0,0.0,0.017067181656164054,-0.011907957818174244,0.003590502471879252,0.0,0.0,0.0,0.0,0.0,0.0,0.0,0.0,0.0,-0.3104962920053101,0.5744932971926882,10.208212625191347,0.0,0.0,0.0,0.0,0.0,0.0,0.0,0.0,0.0
1753722552942730538,142596,1753722552942730538,imu_link,0.0,0.0,0.0,0.0,-1.0,0.0,0.0,0.0,0.0,0.0,0.0,0.0,0.0,0.01646019135943005,-0.012135250319734656,0.002732412651283597,0.0,0.0,0.0,0.0,0.0,0.0,0.0,0.0,0.0,-0.30639161282409677,0.4886553617370606,10.130067618800052,0.0,0.0,0.0,0.0,0.0,0.0,0.0,0.0,0.0
1753722552947896296,142597,1753722552947896296,imu_link,0.0,0.0,0.0,0.0,-1.0,0.0,0.0,0.0,0.0,0.0,0.0,0.0,0.0,0.016359310111200683,-0.013312100028589787,0.0023928478465859563,0.0,0.0,0.0,0.0,0.0,0.0,0.0,0.0,0.0,-0.29879343429046634,0.3694043668975831,10.247811523549503,0.0,0.0,0.0,0.0,0.0,0.0,0.0,0.0,0.0
1753722552952727309,142598,1753722552952727309,imu_link,0.0,0.0,0.0,0.0,-1.0,0.0,0.0,0.0,0.0,0.0,0.0,0.0,0.0,0.020455635140299255,-0.013616829914045631,0.002409843639455925,0.0,0.0,0.0,0.0,0.0,0.0,0.0,0.0,0.0,-0.3576959426638795,0.29975033683898933,10.555255388003237,0.0,0.0,0.0,0.0,0.0,0.0,0.0,0.0,0.0
1753722552957882533,142599,1753722552957882533,imu_link,0.0,0.0,0.0,0.0,-1.0,0.0,0.0,0.0,0.0,0.0,0.0,0.0,0.0,0.02297599581938376,-0.011948954317594681,0.0025777719186272164,0.0,0.0,0.0,0.0,0.0,0.0,0.0,0.0,0.0,-0.4026674295474244,0.31924662023284917,10.845687491980899,0.0,0.0,0.0,0.0,0.0,0.0,0.0,0.0,0.0
1753722552962783315,142600,1753722552962783315,imu_link,0.0,0.0,0.0,0.0,-1.0,0.0,0.0,0.0,0.0,0.0,0.0,0.0,0.0,0.018314903659883412,-0.00941449907429014,0.0022886416854114694,0.0,0.0,0.0,0.0,0.0,0.0,0.0,0.0,0.0,-0.39774632760009776,0.4497911241583253,10.949673176745303,0.0,0.0,0.0,0.0,0.0,0.0,0.0,0.0,0.0
1753722552967882628,142601,1753722552967882628,imu_link,0.0,0.0,0.0,0.0,-1.0,0.0,0.0,0.0,0.0,0.0,0.0,0.0,0.0,0.004481401597276834,-0.007558330106879024,0.00246121031638724,0.0,0.0,0.0,0.0,0.0,0.0,0.0,0.0,0.0,-0.3643798354385377,0.6369553250292971,10.809492370267947,0.0,0.0,0.0,0.0,0.0,0.0,0.0,0.0,0.0
1753722552973780737,142602,1753722552973780737,imu_link,0.0,0.0,0.0,0.0,-1.0,0.0,0.0,0.0,0.0,0.0,0.0,0.0,0.0,-0.009901489873360328,-0.0072124867044354975,0.0029897988430681844,0.0,0.0,0.0,0.0,0.0,0.0,0.0,0.0,0.0,-0.3387597827484132,0.7655850063220216,10.50009346059357,0.0,0.0,0.0,0.0,0.0,0.0,0.0,0.0,0.0
1753722552978773538,142603,1753722552978773538,imu_link,0.0,0.0,0.0,0.0,-1.0,0.0,0.0,0.0,0.0,0.0,0.0,0.0,0.0,-0.011409164385166577,-0.007716679085890462,0.003371381024583248,0.0,0.0,0.0,0.0,0.0,0.0,0.0,0.0,0.0,-0.3410665361929322,0.8191705315036012,10.20696147525879,0.0,0.0,0.0,0.0,0.0,0.0,0.0,0.0,0.0
1753722552983924858,142604,1753722552983924858,imu_link,0.0,0.0,0.0,0.0,-1.0,0.0,0.0,0.0,0.0,0.0,0.0,0.0,0.0,-0.0018614952842649524,-0.008671776469730873,0.0035965510695791774,0.0,0.0,0.0,0.0,0.0,0.0,0.0,0.0,0.0,-0.3769169527218629,0.8180531575888063,9.909319113271486,0.0,0.0,0.0,0.0,0.0,0.0,0.0,0.0,0.0
1753722552988721495,142605,1753722552988721495,imu_link,0.0,0.0,0.0,0.0,-1.0,0.0,0.0,0.0,0.0,0.0,0.0,0.0,0.0,0.00945923610077384,-0.010494841570877692,0.0037643260153864947,0.0,0.0,0.0,0.0,0.0,0.0,0.0,0.0,0.0,-0.41398140905761727,0.7847279654058839,9.764197332973025,0.0,0.0,0.0,0.0,0.0,0.0,0.0,0.0,0.0
1753722552993789343,142606,1753722552993789343,imu_link,0.0,0.0,0.0,0.0,-1.0,0.0,0.0,0.0,0.0,0.0,0.0,0.0,0.0,0.016782929844975796,-0.012780247115291604,0.004160817849003773,0.0,0.0,0.0,0.0,0.0,0.0,0.0,0.0,0.0,-0.4164462995217897,0.7443376038339236,9.89759746107361,0.0,0.0,0.0,0.0,0.0,0.0,0.0,0.0,0.0
1753722552998744648,142607,1753722552998744648,imu_link,0.0,0.0,0.0,0.0,-1.0,0.0,0.0,0.0,0.0,0.0,0.0,0.0,0.0,0.01745647892694013,-0.014190910028764568,0.004599286708553219,0.0,0.0,0.0,0.0,0.0,0.0,0.0,0.0,0.0,-0.4249736078646852,0.614045688183594,10.175374593191226,0.0,0.0,0.0,0.0,0.0,0.0,0.0,0.0,0.0
1753722553003787206,142608,1753722553003787206,imu_link,0.0,0.0,0.0,0.0,-1.0,0.0,0.0,0.0,0.0,0.0,0.0,0.0,0.0,0.015285407615900045,-0.015218586549915552,0.004990460295493712,0.0,0.0,0.0,0.0,0.0,0.0,0.0,0.0,0.0,-0.395689528808899,0.48087187199493414,10.433873314266053,0.0,0.0,0.0,0.0,0.0,0.0,0.0,0.0,0.0
1753722553011341325,142609,1753722553011341325,imu_link,0.0,0.0,0.0,0.0,-1.0,0.0,0.0,0.0,0.0,0.0,0.0,0.0,0.0,0.009365609941713563,-0.016254288862144018,0.005253043681299316,0.0,0.0,0.0,0.0,0.0,0.0,0.0,0.0,0.0,-0.3399788503787232,0.384082259595337,10.62923999016968,0.0,0.0,0.0,0.0,0.0,0.0,0.0,0.0,0.0
1753722553014546741,142610,1753722553014546741,imu_link,0.0,0.0,0.0,0.0,-1.0,0.0,0.0,0.0,0.0,0.0,0.0,0.0,0.0,0.0006500931123648225,-0.01646139785089921,0.005177228402991187,0.0,0.0,0.0,0.0,0.0,0.0,0.0,0.0,0.0,-0.28378885277618415,0.3142135893579102,10.685608116375734,0.0,0.0,0.0,0.0,0.0,0.0,0.0,0.0,0.0
1753722553019486653,142611,1753722553019486653,imu_link,0.0,0.0,0.0,0.0,-1.0,0.0,0.0,0.0,0.0,0.0,0.0,0.0,0.0,-0.0026912103623483526,-0.01645671311312095,0.005152109976919119,0.0,0.0,0.0,0.0,0.0,0.0,0.0,0.0,0.0,-0.2461017842987061,0.33878719635742194,10.620664139388126,0.0,0.0,0.0,0.0,0.0,0.0,0.0,0.0,0.0
1753722553023920654,142612,1753722553023920654,imu_link,0.0,0.0,0.0,0.0,-1.0,0.0,0.0,0.0,0.0,0.0,0.0,0.0,0.0,-0.005027433811654093,-0.01691271039722575,0.004758975336955166,0.0,0.0,0.0,0.0,0.0,0.0,0.0,0.0,0.0,-0.2479669871020508,0.4385845245925904,10.491987352177738,0.0,0.0,0.0,0.0,0.0,0.0,0.0,0.0,0.0
1753722553029190420,142613,1753722553029190420,imu_link,0.0,0.0,0.0,0.0,-1.0,0.0,0.0,0.0,0.0,0.0,0.0,0.0,0.0,-0.00677967503899899,-0.018375494549184326,0.004436797728714481,0.0,0.0,0.0,0.0,0.0,0.0,0.0,0.0,0.0,-0.30036367144927983,0.5337608640585328,10.300904920579836,0.0,0.0,0.0,0.0,0.0,0.0,0.0,0.0,0.0
1753722553034138865,142614,1753722553034138865,imu_link,0.0,0.0,0.0,0.0,-1.0,0.0,0.0,0.0,0.0,0.0,0.0,0.0,0.0,-0.00469062497241946,-0.02081933380946871,0.004414661233062855,0.0,0.0,0.0,0.0,0.0,0.0,0.0,0.0,0.0,-0.3119310173501587,0.6285728060317994,10.146926449645083,0.0,0.0,0.0,0.0,0.0,0.0,0.0,0.0,0.0
1753722553040763780,142615,1753722553040763780,imu_link,0.0,0.0,0.0,0.0,-1.0,0.0,0.0,0.0,0.0,0.0,0.0,0.0,0.0,-0.00010409721378429452,-0.023709070527278237,0.004486929668556953,0.0,0.0,0.0,0.0,0.0,0.0,0.0,0.0,0.0,-0.34927894716247565,0.6485415252682497,10.029887457719424,0.0,0.0,0.0,0.0,0.0,0.0,0.0,0.0,0.0
1753722553043218870,142616,1753722553043218870,imu_link,0.0,0.0,0.0,0.0,-1.0,0.0,0.0,0.0,0.0,0.0,0.0,0.0,0.0,0.00411939363019962,-0.026096249074485676,0.004554654594371186,0.0,0.0,0.0,0.0,0.0,0.0,0.0,0.0,0.0,-0.4356861040628053,0.6650741461370852,10.001345581178287,0.0,0.0,0.0,0.0,0.0,0.0,0.0,0.0,0.0
1753722553049108520,142617,1753722553049108520,imu_link,0.0,0.0,0.0,0.0,-1.0,0.0,0.0,0.0,0.0,0.0,0.0,0.0,0.0,0.005265689648738652,-0.027311073001455546,0.004551652488508115,0.0,0.0,0.0,0.0,0.0,0.0,0.0,0.0,0.0,-0.44958983165374766,0.6760306114843752,10.080640223351747,0.0,0.0,0.0,0.0,0.0,0.0,0.0,0.0,0.0
1753722553053222969,142618,1753722553053222969,imu_link,0.0,0.0,0.0,0.0,-1.0,0.0,0.0,0.0,0.0,0.0,0.0,0.0,0.0,-0.0004635146540280524,-0.027199022628187224,0.004444779133818184,0.0,0.0,0.0,0.0,0.0,0.0,0.0,0.0,0.0,-0.4381887032031251,0.5901552067727662,10.098556453359988,0.0,0.0,0.0,0.0,0.0,0.0,0.0,0.0,0.0
1753722553058021518,142619,1753722553058021518,imu_link,0.0,0.0,0.0,0.0,-1.0,0.0,0.0,0.0,0.0,0.0,0.0,0.0,0.0,-0.00452497651826515,-0.026550043200255478,0.004637954961894365,0.0,0.0,0.0,0.0,0.0,0.0,0.0,0.0,0.0,-0.452306532277527,0.44661874710357674,10.150666132783206,0.0,0.0,0.0,0.0,0.0,0.0,0.0,0.0,0.0
1753722553063120514,142620,1753722553063120514,imu_link,0.0,0.0,0.0,0.0,-1.0,0.0,0.0,0.0,0.0,0.0,0.0,0.0,0.0,-0.007333547430381556,-0.02666180708223848,0.005250622628183936,0.0,0.0,0.0,0.0,0.0,0.0,0.0,0.0,0.0,-0.44747515303741464,0.2698780024353028,10.240266735712893,0.0,0.0,0.0,0.0,0.0,0.0,0.0,0.0,0.0
1753722553068041633,142621,1753722553068041633,imu_link,0.0,0.0,0.0,0.0,-1.0,0.0,0.0,0.0,0.0,0.0,0.0,0.0,0.0,-0.010617112823381441,-0.026940647839713856,0.006050929981092519,0.0,0.0,0.0,0.0,0.0,0.0,0.0,0.0,0.0,-0.47889480011901864,0.06756275476348879,10.418384565321047,0.0,0.0,0.0,0.0,0.0,0.0,0.0,0.0,0.0
1753722553073030059,142622,1753722553073030059,imu_link,0.0,0.0,0.0,0.0,-1.0,0.0,0.0,0.0,0.0,0.0,0.0,0.0,0.0,-0.005205687882362481,-0.027406167932739152,0.006626692727726646,0.0,0.0,0.0,0.0,0.0,0.0,0.0,0.0,0.0,-0.4555834162347413,-0.006284300517578127,10.740460593220828,0.0,0.0,0.0,0.0,0.0,0.0,0.0,0.0,0.0
1753722553077943926,142623,1753722553077943926,imu_link,0.0,0.0,0.0,0.0,-1.0,0.0,0.0,0.0,0.0,0.0,0.0,0.0,0.0,0.0016687108597757579,-0.02746844548904378,0.006890837692791669,0.0,0.0,0.0,0.0,0.0,0.0,0.0,0.0,0.0,-0.5023635429074098,0.12388784519470218,11.15217642910248,0.0,0.0,0.0,0.0,0.0,0.0,0.0,0.0,0.0
1753722553083367334,142624,1753722553083367334,imu_link,0.0,0.0,0.0,0.0,-1.0,0.0,0.0,0.0,0.0,0.0,0.0,0.0,0.0,-0.0013708971160528475,-0.025111550281221216,0.006198626326396285,0.0,0.0,0.0,0.0,0.0,0.0,0.0,0.0,0.0,-0.7218221124365235,0.31846162136352546,11.462038377377933,0.0,0.0,0.0,0.0,0.0,0.0,0.0,0.0,0.0
1753722553088067830,142625,1753722553088067830,imu_link,0.0,0.0,0.0,0.0,-1.0,0.0,0.0,0.0,0.0,0.0,0.0,0.0,0.0,-0.01172689129076349,-0.020402093550652627,0.004818295173370506,0.0,0.0,0.0,0.0,0.0,0.0,0.0,0.0,0.0,-0.9055218436502078,0.5127741901312257,11.369852575350649,0.0,0.0,0.0,0.0,0.0,0.0,0.0,0.0,0.0
1753722553093045760,142626,1753722553093045760,imu_link,0.0,0.0,0.0,0.0,-1.0,0.0,0.0,0.0,0.0,0.0,0.0,0.0,0.0,-0.03098863250827534,-0.0162274151725633,0.003130518520311129,0.0,0.0,0.0,0.0,0.0,0.0,0.0,0.0,0.0,-1.0371589415032962,0.7792617037405397,10.777691626137088,0.0,0.0,0.0,0.0,0.0,0.0,0.0,0.0,0.0
1753722553098147488,142627,1753722553098147488,imu_link,0.0,0.0,0.0,0.0,-1.0,0.0,0.0,0.0,0.0,0.0,0.0,0.0,0.0,-0.042609332374309736,-0.014819948049202636,0.0012219983143684436,0.0,0.0,0.0,0.0,0.0,0.0,0.0,0.0,0.0,-1.143207230997925,0.9214356830999758,10.00658774556824,0.0,0.0,0.0,0.0,0.0,0.0,0.0,0.0,0.0
1753722553103280726,142628,1753722553103280726,imu_link,0.0,0.0,0.0,0.0,-1.0,0.0,0.0,0.0,0.0,0.0,0.0,0.0,0.0,-0.03596490543251293,-0.015202413915104815,-0.00020367109333135382,0.0,0.0,0.0,0.0,0.0,0.0,0.0,0.0,0.0,-1.2328561968011476,0.9071212302142336,9.31038526683655,0.0,0.0,0.0,0.0,0.0,0.0,0.0,0.0,0.0
1753722553108102789,142629,1753722553108102789,imu_link,0.0,0.0,0.0,0.0,-1.0,0.0,0.0,0.0,0.0,0.0,0.0,0.0,0.0,-0.027800601871208357,-0.016951455317248884,-0.0009183094817522107,0.0,0.0,0.0,0.0,0.0,0.0,0.0,0.0,0.0,-1.261768995034485,0.7677995231475832,8.831844748708193,0.0,0.0,0.0,0.0,0.0,0.0,0.0,0.0,0.0
1753722553113164428,142630,1753722553113164428,imu_link,0.0,0.0,0.0,0.0,-1.0,0.0,0.0,0.0,0.0,0.0,0.0,0.0,0.0,-0.022567435035986308,-0.020644905002682627,-0.0016435964687922147,0.0,0.0,0.0,0.0,0.0,0.0,0.0,0.0,0.0,-1.1496021436322024,0.5414467900830079,8.66804610053406,0.0,0.0,0.0,0.0,0.0,0.0,0.0,0.0,0.0
1753722553118286019,142631,1753722553118286019,imu_link,0.0,0.0,0.0,0.0,-1.0,0.0,0.0,0.0,0.0,0.0,0.0,0.0,0.0,-0.01921569278725732,-0.024790550918830017,-0.0017975915872844937,0.0,0.0,0.0,0.0,0.0,0.0,0.0,0.0,0.0,-0.8937452445242312,0.3381879276818848,8.77922229114441,0.0,0.0,0.0,0.0,0.0,0.0,0.0,0.0,0.0
1753722553122888258,142632,1753722553122888258,imu_link,0.0,0.0,0.0,0.0,-1.0,0.0,0.0,0.0,0.0,0.0,0.0,0.0,0.0,-0.013984886478822772,-0.027232106319008898,-0.0019041380998038476,0.0,0.0,0.0,0.0,0.0,0.0,0.0,0.0,0.0,-0.6384738474322511,0.1264582002420044,9.206373066288759,0.0,0.0,0.0,0.0,0.0,0.0,0.0,0.0,0.0
1753722553128781605,142633,1753722553128781605,imu_link,0.0,0.0,0.0,0.0,-1.0,0.0,0.0,0.0,0.0,0.0,0.0,0.0,0.0,-0.0023039911621629797,-0.026065336261290796,-0.0027731468699498676,0.0,0.0,0.0,0.0,0.0,0.0,0.0,0.0,0.0,-0.42418950682098394,-0.08909973594238282,9.741347251893618,0.0,0.0,0.0,0.0,0.0,0.0,0.0,0.0,0.0
1753722553133770971,142634,1753722553133770971,imu_link,0.0,0.0,0.0,0.0,-1.0,0.0,0.0,0.0,0.0,0.0,0.0,0.0,0.0,0.0016964803390091677,-0.021145239839507085,-0.003607780720946015,0.0,0.0,0.0,0.0,0.0,0.0,0.0,0.0,0.0,-0.3058463932510377,-0.01755135367523194,10.250090504254764,0.0,0.0,0.0,0.0,0.0,0.0,0.0,0.0,0.0
1753722553138760442,142635,1753722553138760442,imu_link,0.0,0.0,0.0,0.0,-1.0,0.0,0.0,0.0,0.0,0.0,0.0,0.0,0.0,-0.008499207838755104,-0.015040340549384216,-0.004966935729389269,0.0,0.0,0.0,0.0,0.0,0.0,0.0,0.0,0.0,-0.21306617080657964,0.19341390517456059,10.528547170658571,0.0,0.0,0.0,0.0,0.0,0.0,0.0,0.0,0.0
1753722553143801117,142636,1753722553143801117,imu_link,0.0,0.0,0.0,0.0,-1.0,0.0,0.0,0.0,0.0,0.0,0.0,0.0,0.0,-0.022046117738828558,-0.008073501964212238,-0.006327216527531175,0.0,0.0,0.0,0.0,0.0,0.0,0.0,0.0,0.0,-0.18636202360473636,0.3966977869830323,10.362519700303958,0.0,0.0,0.0,0.0,0.0,0.0,0.0,0.0,0.0
1753722553148729223,142637,1753722553148729223,imu_link,0.0,0.0,0.0,0.0,-1.0,0.0,0.0,0.0,0.0,0.0,0.0,0.0,0.0,-0.027857056794770494,-0.0027530601992692637,-0.0072608674158578445,0.0,0.0,0.0,0.0,0.0,0.0,0.0,0.0,0.0,-0.1914094196896363,0.5377719898098756,9.93614937504578,0.0,0.0,0.0,0.0,0.0,0.0,0.0,0.0,0.0
1753722553153762361,142638,1753722553153762361,imu_link,0.0,0.0,0.0,0.0,-1.0,0.0,0.0,0.0,0.0,0.0,0.0,0.0,0.0,-0.02432214977259742,-0.00250639927278581,-0.00756839765275048,0.0,0.0,0.0,0.0,0.0,0.0,0.0,0.0,0.0,-0.33704996363281253,0.575235918692627,9.449104652620546,0.0,0.0,0.0,0.0,0.0,0.0,0.0,0.0,0.0
1753722553158773052,142639,1753722553158773052,imu_link,0.0,0.0,0.0,0.0,-1.0,0.0,0.0,0.0,0.0,0.0,0.0,0.0,0.0,-0.011510808265127287,-0.00521959683251034,-0.007209581440697042,0.0,0.0,0.0,0.0,0.0,0.0,0.0,0.0,0.0,-0.4823975171478273,0.5778810925418092,9.201011431235964,0.0,0.0,0.0,0.0,0.0,0.0,0.0,0.0,0.0
1753722553163708617,142640,1753722553163708617,imu_link,0.0,0.0,0.0,0.0,-1.0,0.0,0.0,0.0,0.0,0.0,0.0,0.0,0.0,-0.002323916429302558,-0.010915447093524157,-0.006409996368634547,0.0,0.0,0.0,0.0,0.0,0.0,0.0,0.0,0.0,-0.47720371563140884,0.6255096644277955,9.166428205790712,0.0,0.0,0.0,0.0,0.0,0.0,0.0,0.0,0.0
1753722553168745128,142641,1753722553168745128,imu_link,0.0,0.0,0.0,0.0,-1.0,0.0,0.0,0.0,0.0,0.0,0.0,0.0,0.0,-0.00642438145922843,-0.018891328161035743,-0.005296142461841609,0.0,0.0,0.0,0.0,0.0,0.0,0.0,0.0,0.0,-0.3832207659829713,0.6049725018621828,9.199010477198488,0.0,0.0,0.0,0.0,0.0,0.0,0.0,0.0,0.0
1753722553173727378,142642,1753722553173727378,imu_link,0.0,0.0,0.0,0.0,-1.0,0.0,0.0,0.0,0.0,0.0,0.0,0.0,0.0,-0.011415975614597847,-0.025897464473358865,-0.0041281376670346676,0.0,0.0,0.0,0.0,0.0,0.0,0.0,0.0,0.0,-0.23448793103057866,0.473023439532776,9.282435177090761,0.0,0.0,0.0,0.0,0.0,0.0,0.0,0.0,0.0
1753722553178766358,142643,1753722553178766358,imu_link,0.0,0.0,0.0,0.0,-1.0,0.0,0.0,0.0,0.0,0.0,0.0,0.0,0.0,-0.009280183082537375,-0.03145582312795024,-0.002699817206173529,0.0,0.0,0.0,0.0,0.0,0.0,0.0,0.0,0.0,-0.11510800843170167,0.33618625538391117,9.39761626852814,0.0,0.0,0.0,0.0,0.0,0.0,0.0,0.0,0.0
1753722553183760693,142644,1753722553183760693,imu_link,0.0,0.0,0.0,0.0,-1.0,0.0,0.0,0.0,0.0,0.0,0.0,0.0,0.0,-0.006456206202430103,-0.03539628075748064,-0.0015539771526378932,0.0,0.0,0.0,0.0,0.0,0.0,0.0,0.0,0.0,-0.0840885521575928,0.2696190096707154,9.558425755929568,0.0,0.0,0.0,0.0,0.0,0.0,0.0,0.0,0.0
1753722553188815327,142645,1753722553188815327,imu_link,0.0,0.0,0.0,0.0,-1.0,0.0,0.0,0.0,0.0,0.0,0.0,0.0,0.0,-0.00880278368889262,-0.036850881749909234,-0.0014045537894451568,0.0,0.0,0.0,0.0,0.0,0.0,0.0,0.0,0.0,-0.025113319908752447,0.2201602501806641,9.658929613074648,0.0,0.0,0.0,0.0,0.0,0.0,0.0,0.0,0.0
1753722553193783237,142646,1753722553193783237,imu_link,0.0,0.0,0.0,0.0,-1.0,0.0,0.0,0.0,0.0,0.0,0.0,0.0,0.0,-0.01714091079370443,-0.03693376650331427,-0.0015192996018485985,0.0,0.0,0.0,0.0,0.0,0.0,0.0,0.0,0.0,-0.0081379512979126,0.23220745394927986,9.660054289304506,0.0,0.0,0.0,0.0,0.0,0.0,0.0,0.0,0.0
1753722553197927030,142647,1753722553197927030,imu_link,0.0,0.0,0.0,0.0,-1.0,0.0,0.0,0.0,0.0,0.0,0.0,0.0,0.0,-0.021060192278652305,-0.03585553435802563,-0.0015578145218257706,0.0,0.0,0.0,0.0,0.0,0.0,0.0,0.0,0.0,-0.010049422048339845,0.20304110976013187,9.672282554573671,0.0,0.0,0.0,0.0,0.0,0.0,0.0,0.0,0.0
1753722553203940159,142648,1753722553203940159,imu_link,0.0,0.0,0.0,0.0,-1.0,0.0,0.0,0.0,0.0,0.0,0.0,0.0,0.0,-0.010617701946306183,-0.0330533348506912,-0.0013938002785243435,0.0,0.0,0.0,0.0,0.0,0.0,0.0,0.0,0.0,-0.0037120301089477547,0.1784468527713013,9.725379961891786,0.0,0.0,0.0,0.0,0.0,0.0,0.0,0.0,0.0
1753722553208060420,142649,1753722553208060420,imu_link,0.0,0.0,0.0,0.0,-1.0,0.0,0.0,0.0,0.0,0.0,0.0,0.0,0.0,0.003303260660093502,-0.028636260634690013,-0.0009688247550046173,0.0,0.0,0.0,0.0,0.0,0.0,0.0,0.0,0.0,-0.11258050959411622,0.28994242988311775,9.908637962899173,0.0,0.0,0.0,0.0,0.0,0.0,0.0,0.0,0.0
1753722553214094485,142650,1753722553214094485,imu_link,0.0,0.0,0.0,0.0,-1.0,0.0,0.0,0.0,0.0,0.0,0.0,0.0,0.0,0.009119570418863058,-0.022505581163976874,-0.0008385882377512686,0.0,0.0,0.0,0.0,0.0,0.0,0.0,0.0,0.0,-0.21781034125122073,0.4599021370443727,10.133272975982669,0.0,0.0,0.0,0.0,0.0,0.0,0.0,0.0,0.0
1753722553218203709,142651,1753722553218203709,imu_link,0.0,0.0,0.0,0.0,-1.0,0.0,0.0,0.0,0.0,0.0,0.0,0.0,0.0,0.0035429005325423534,-0.014593087302114467,-0.0008743835080621638,0.0,0.0,0.0,0.0,0.0,0.0,0.0,0.0,0.0,-0.2963756497439576,0.6259324804409792,10.21725480660126,0.0,0.0,0.0,0.0,0.0,0.0,0.0,0.0,0.0
1753722553223125036,142652,1753722553223125036,imu_link,0.0,0.0,0.0,0.0,-1.0,0.0,0.0,0.0,0.0,0.0,0.0,0.0,0.0,-0.009450362941105971,-0.007297276019624635,-0.0007543961156639244,0.0,0.0,0.0,0.0,0.0,0.0,0.0,0.0,0.0,-0.3828471508139039,0.7142973760388185,9.987054531613772,0.0,0.0,0.0,0.0,0.0,0.0,0.0,0.0,0.0
1753722553228006131,142653,1753722553228006131,imu_link,0.0,0.0,0.0,0.0,-1.0,0.0,0.0,0.0,0.0,0.0,0.0,0.0,0.0,-0.01892872939657984,-0.002477165056417595,-0.0004572925475215255,0.0,0.0,0.0,0.0,0.0,0.0,0.0,0.0,0.0,-0.36560351190704354,0.6581098923480226,9.536125383551333,0.0,0.0,0.0,0.0,0.0,0.0,0.0,0.0,0.0
1753722553233124085,142654,1753722553233124085,imu_link,0.0,0.0,0.0,0.0,-1.0,0.0,0.0,0.0,0.0,0.0,0.0,0.0,0.0,-0.020863663292011322,-0.000248617944418386,-0.00012183142785445401,0.0,0.0,0.0,0.0,0.0,0.0,0.0,0.0,0.0,-0.36361009960479745,0.5595386347830201,9.018484978545839,0.0,0.0,0.0,0.0,0.0,0.0,0.0,0.0,0.0
1753722553238030632,142655,1753722553238030632,imu_link,0.0,0.0,0.0,0.0,-1.0,0.0,0.0,0.0,0.0,0.0,0.0,0.0,0.0,-0.014510380092604556,-0.0010091272191986452,-0.00016039880398245956,0.0,0.0,0.0,0.0,0.0,0.0,0.0,0.0,0.0,-0.3231941200750733,0.4283154345419312,8.638751786266177,0.0,0.0,0.0,0.0,0.0,0.0,0.0,0.0,0.0
1753722553243009710,142656,1753722553243009710,imu_link,0.0,0.0,0.0,0.0,-1.0,0.0,0.0,0.0,0.0,0.0,0.0,0.0,0.0,-0.0029413172544326977,-0.003927476749743437,-7.78570331020995e-05,0.0,0.0,0.0,0.0,0.0,0.0,0.0,0.0,0.0,-0.1642759322750855,0.26086766390747074,8.610422215557252,0.0,0.0,0.0,0.0,0.0,0.0,0.0,0.0,0.0
1753722553248056221,142657,1753722553248056221,imu_link,0.0,0.0,0.0,0.0,-1.0,0.0,0.0,0.0,0.0,0.0,0.0,0.0,0.0,0.00943214048132421,-0.009789899500183932,0.0005157771206120582,0.0,0.0,0.0,0.0,0.0,0.0,0.0,0.0,0.0,-0.014067071999206548,0.13224887623229983,8.929129960851443,0.0,0.0,0.0,0.0,0.0,0.0,0.0,0.0,0.0
1753722553253063155,142658,1753722553253063155,imu_link,0.0,0.0,0.0,0.0,-1.0,0.0,0.0,0.0,0.0,0.0,0.0,0.0,0.0,0.019542196010397486,-0.01587732282190228,0.0014541087116284627,0.0,0.0,0.0,0.0,0.0,0.0,0.0,0.0,0.0,0.18347485582275394,0.08679447887390138,9.548092740694582,0.0,0.0,0.0,0.0,0.0,0.0,0.0,0.0,0.0
1753722553258014477,142659,1753722553258014477,imu_link,0.0,0.0,0.0,0.0,-1.0,0.0,0.0,0.0,0.0,0.0,0.0,0.0,0.0,0.024058650421696498,-0.019708389201502755,0.0025441999820939453,0.0,0.0,0.0,0.0,0.0,0.0,0.0,0.0,0.0,0.2819663266174317,0.10482724664794925,10.285126233813784,0.0,0.0,0.0,0.0,0.0,0.0,0.0,0.0,0.0
1753722553263090510,142660,1753722553263090510,imu_link,0.0,0.0,0.0,0.0,-1.0,0.0,0.0,0.0,0.0,0.0,0.0,0.0,0.0,0.022161844077743728,-0.020804908367989573,0.003714674251078574,0.0,0.0,0.0,0.0,0.0,0.0,0.0,0.0,0.0,0.2461676846994019,0.15524003564453126,10.873089129981386,0.0,0.0,0.0,0.0,0.0,0.0,0.0,0.0,0.0
1753722553268076377,142661,1753722553268076377,imu_link,0.0,0.0,0.0,0.0,-1.0,0.0,0.0,0.0,0.0,0.0,0.0,0.0,0.0,0.017930020775954382,-0.018861399909441117,0.004709287256850515,0.0,0.0,0.0,0.0,0.0,0.0,0.0,0.0,0.0,0.1624769890026856,0.2996584593502808,11.158923768221133,0.0,0.0,0.0,0.0,0.0,0.0,0.0,0.0,0.0
1753722553273080643,142662,1753722553273080643,imu_link,0.0,0.0,0.0,0.0,-1.0,0.0,0.0,0.0,0.0,0.0,0.0,0.0,0.0,0.003794907951322271,-0.016666214909371847,0.005707890965174308,0.0,0.0,0.0,0.0,0.0,0.0,0.0,0.0,0.0,-0.038651931746521005,0.4607331644406129,11.02653345452576,0.0,0.0,0.0,0.0,0.0,0.0,0.0,0.0,0.0
1753722553278029415,142663,1753722553278029415,imu_link,0.0,0.0,0.0,0.0,-1.0,0.0,0.0,0.0,0.0,0.0,0.0,0.0,0.0,-0.014193561081925913,-0.014235521967503974,0.006637720624667202,0.0,0.0,0.0,0.0,0.0,0.0,0.0,0.0,0.0,-0.2512192107821656,0.5782316635198976,10.542234522274477,0.0,0.0,0.0,0.0,0.0,0.0,0.0,0.0,0.0
1753722553284064848,142664,1753722553284064848,imu_link,0.0,0.0,0.0,0.0,-1.0,0.0,0.0,0.0,0.0,0.0,0.0,0.0,0.0,-0.024368157851966693,-0.01164085513321993,0.007461330613811319,0.0,0.0,0.0,0.0,0.0,0.0,0.0,0.0,0.0,-0.42436721643920905,0.5849888787203981,9.945689550401003,0.0,0.0,0.0,0.0,0.0,0.0,0.0,0.0,0.0
1753722553288919658,142665,1753722553288919658,imu_link,0.0,0.0,0.0,0.0,-1.0,0.0,0.0,0.0,0.0,0.0,0.0,0.0,0.0,-0.018986943618739156,-0.011627858113078865,0.00818357917919152,0.0,0.0,0.0,0.0,0.0,0.0,0.0,0.0,0.0,-0.5208167324929811,0.49238325343200695,9.462078412431643,0.0,0.0,0.0,0.0,0.0,0.0,0.0,0.0,0.0
1753722553294026447,142666,1753722553294026447,imu_link,0.0,0.0,0.0,0.0,-1.0,0.0,0.0,0.0,0.0,0.0,0.0,0.0,0.0,0.0007415887446835635,-0.012329313867286477,0.008346939738151796,0.0,0.0,0.0,0.0,0.0,0.0,0.0,0.0,0.0,-0.5649265461990358,0.4322204971597291,9.326289828754884,0.0,0.0,0.0,0.0,0.0,0.0,0.0,0.0,0.0
1753722553299123922,142667,1753722553299123922,imu_link,0.0,0.0,0.0,0.0,-1.0,0.0,0.0,0.0,0.0,0.0,0.0,0.0,0.0,0.016617047355687004,-0.012461136174330398,0.008029503358928729,0.0,0.0,0.0,0.0,0.0,0.0,0.0,0.0,0.0,-0.5360301482470704,0.41378508452148444,9.596042853863528,0.0,0.0,0.0,0.0,0.0,0.0,0.0,0.0,0.0
1753722553304073662,142668,1753722553304073662,imu_link,0.0,0.0,0.0,0.0,-1.0,0.0,0.0,0.0,0.0,0.0,0.0,0.0,0.0,0.01825020908555193,-0.011574518277858515,0.007521562380233451,0.0,0.0,0.0,0.0,0.0,0.0,0.0,0.0,0.0,-0.3937236498257447,0.38616401793884286,10.011657707003787,0.0,0.0,0.0,0.0,0.0,0.0,0.0,0.0,0.0
1753722553309847938,142669,1753722553309847938,imu_link,0.0,0.0,0.0,0.0,-1.0,0.0,0.0,0.0,0.0,0.0,0.0,0.0,0.0,0.00733812725585815,-0.009591671741273658,0.00689105962266058,0.0,0.0,0.0,0.0,0.0,0.0,0.0,0.0,0.0,-0.24692125967193607,0.33548708864410404,10.320015438231204,0.0,0.0,0.0,0.0,0.0,0.0,0.0,0.0,0.0
1753722553313836142,142670,1753722553313836142,imu_link,0.0,0.0,0.0,0.0,-1.0,0.0,0.0,0.0,0.0,0.0,0.0,0.0,0.0,-0.006394013382984513,-0.007487078513693387,0.006347351619274086,0.0,0.0,0.0,0.0,0.0,0.0,0.0,0.0,0.0,-0.14723651876983646,0.2776521547909546,10.396911808601688,0.0,0.0,0.0,0.0,0.0,0.0,0.0,0.0,0.0
1753722553318776746,142671,1753722553318776746,imu_link,0.0,0.0,0.0,0.0,-1.0,0.0,0.0,0.0,0.0,0.0,0.0,0.0,0.0,-0.010931825517849703,-0.004814090611126796,0.005770559925065923,0.0,0.0,0.0,0.0,0.0,0.0,0.0,0.0,0.0,-0.12703358675598148,0.27155980939147956,10.296870092232059,0.0,0.0,0.0,0.0,0.0,0.0,0.0,0.0,0.0
1753722553323758088,142672,1753722553323758088,imu_link,0.0,0.0,0.0,0.0,-1.0,0.0,0.0,0.0,0.0,0.0,0.0,0.0,0.0,-0.010687202311071696,-0.002051580234530498,0.005216861042489961,0.0,0.0,0.0,0.0,0.0,0.0,0.0,0.0,0.0,-0.14661258981719974,0.329976773668213,10.073798792107851,0.0,0.0,0.0,0.0,0.0,0.0,0.0,0.0,0.0
1753722553328743562,142673,1753722553328743562,imu_link,0.0,0.0,0.0,0.0,-1.0,0.0,0.0,0.0,0.0,0.0,0.0,0.0,0.0,-0.012182424539687839,-0.0022821532630622507,0.005105569265864461,0.0,0.0,0.0,0.0,0.0,0.0,0.0,0.0,0.0,-0.1379425272003174,0.43514172246032723,9.768519944360355,0.0,0.0,0.0,0.0,0.0,0.0,0.0,0.0,0.0
1753722553333739649,142674,1753722553333739649,imu_link,0.0,0.0,0.0,0.0,-1.0,0.0,0.0,0.0,0.0,0.0,0.0,0.0,0.0,-0.014011707712252658,-0.005955334698831735,0.005798535193814141,0.0,0.0,0.0,0.0,0.0,0.0,0.0,0.0,0.0,-0.23365295320159915,0.5620205839340211,9.513351617649842,0.0,0.0,0.0,0.0,0.0,0.0,0.0,0.0,0.0
1753722553338733807,142675,1753722553338733807,imu_link,0.0,0.0,0.0,0.0,-1.0,0.0,0.0,0.0,0.0,0.0,0.0,0.0,0.0,-0.00531697965898798,-0.01138217771310714,0.006761202403728641,0.0,0.0,0.0,0.0,0.0,0.0,0.0,0.0,0.0,-0.38510500268951425,0.5135193853979494,9.418811297854921,0.0,0.0,0.0,0.0,0.0,0.0,0.0,0.0,0.0
1753722553343730008,142676,1753722553343730008,imu_link,0.0,0.0,0.0,0.0,-1.0,0.0,0.0,0.0,0.0,0.0,0.0,0.0,0.0,0.014334962689129687,-0.015880429840067017,0.007394945337387596,0.0,0.0,0.0,0.0,0.0,0.0,0.0,0.0,0.0,-0.45672694680267345,0.45941120599395757,9.389039699486085,0.0,0.0,0.0,0.0,0.0,0.0,0.0,0.0,0.0
1753722553348838881,142677,1753722553348838881,imu_link,0.0,0.0,0.0,0.0,-1.0,0.0,0.0,0.0,0.0,0.0,0.0,0.0,0.0,0.02333535676838816,-0.019689730952160225,0.007789496293424045,0.0,0.0,0.0,0.0,0.0,0.0,0.0,0.0,0.0,-0.44072356421081554,0.49557370670928963,9.473569622719728,0.0,0.0,0.0,0.0,0.0,0.0,0.0,0.0,0.0
1753722553353899401,142678,1753722553353899401,imu_link,0.0,0.0,0.0,0.0,-1.0,0.0,0.0,0.0,0.0,0.0,0.0,0.0,0.0,0.01661540507465707,-0.023109351460067422,0.00816978321152238,0.0,0.0,0.0,0.0,0.0,0.0,0.0,0.0,0.0,-0.43365576119995125,0.475252860263672,9.55562519839264,0.0,0.0,0.0,0.0,0.0,0.0,0.0,0.0,0.0
1753722553358799445,142679,1753722553358799445,imu_link,0.0,0.0,0.0,0.0,-1.0,0.0,0.0,0.0,0.0,0.0,0.0,0.0,0.0,0.008382521148770831,-0.02392490337742585,0.008440130107651303,0.0,0.0,0.0,0.0,0.0,0.0,0.0,0.0,0.0,-0.4944060545596315,0.43156532387542734,9.603808806078492,0.0,0.0,0.0,0.0,0.0,0.0,0.0,0.0,0.0
1753722553362915827,142680,1753722553362915827,imu_link,0.0,0.0,0.0,0.0,-1.0,0.0,0.0,0.0,0.0,0.0,0.0,0.0,0.0,0.000894510529628024,-0.02177701364996553,0.008264857967363358,0.0,0.0,0.0,0.0,0.0,0.0,0.0,0.0,0.0,-0.5259809656188966,0.36524689556976325,9.626052196457216,0.0,0.0,0.0,0.0,0.0,0.0,0.0,0.0,0.0
1753722553367927076,142681,1753722553367927076,imu_link,0.0,0.0,0.0,0.0,-1.0,0.0,0.0,0.0,0.0,0.0,0.0,0.0,0.0,-0.005222163148812643,-0.018546146513110418,0.007684386272419816,0.0,0.0,0.0,0.0,0.0,0.0,0.0,0.0,0.0,-0.4462875093038941,0.2810807114233399,9.577213954182435,0.0,0.0,0.0,0.0,0.0,0.0,0.0,0.0,0.0
1753722553373791416,142682,1753722553373791416,imu_link,0.0,0.0,0.0,0.0,-1.0,0.0,0.0,0.0,0.0,0.0,0.0,0.0,0.0,-0.00602447190562994,-0.014263356008153795,0.007217950214299205,0.0,0.0,0.0,0.0,0.0,0.0,0.0,0.0,0.0,-0.3646281740057374,0.23568299678924567,9.544549022962343,0.0,0.0,0.0,0.0,0.0,0.0,0.0,0.0,0.0
1753722553377925914,142683,1753722553377925914,imu_link,0.0,0.0,0.0,0.0,-1.0,0.0,0.0,0.0,0.0,0.0,0.0,0.0,0.0,0.003931330259285416,-0.009064245320088097,0.006928924893385126,0.0,0.0,0.0,0.0,0.0,0.0,0.0,0.0,0.0,-0.42770233935180674,0.19203406690277103,9.672107059591982,0.0,0.0,0.0,0.0,0.0,0.0,0.0,0.0,0.0
1753722553382832604,142684,1753722553382832604,imu_link,0.0,0.0,0.0,0.0,-1.0,0.0,0.0,0.0,0.0,0.0,0.0,0.0,0.0,0.018602843541984097,-0.0016677706841492852,0.006216957733568238,0.0,0.0,0.0,0.0,0.0,0.0,0.0,0.0,0.0,-0.4834759852856446,0.2324091055841065,9.910927837221987,0.0,0.0,0.0,0.0,0.0,0.0,0.0,0.0,0.0
1753722553387893414,142685,1753722553387893414,imu_link,0.0,0.0,0.0,0.0,-1.0,0.0,0.0,0.0,0.0,0.0,0.0,0.0,0.0,0.021107467375818628,0.0071292428281516775,0.005190685423224176,0.0,0.0,0.0,0.0,0.0,0.0,0.0,0.0,0.0,-0.43596634536712653,0.3799804534561158,10.051822714344484,0.0,0.0,0.0,0.0,0.0,0.0,0.0,0.0,0.0
1753722553392754972,142686,1753722553392754972,imu_link,0.0,0.0,0.0,0.0,-1.0,0.0,0.0,0.0,0.0,0.0,0.0,0.0,0.0,0.011368171920834665,0.01304883471282335,0.00436195490674103,0.0,0.0,0.0,0.0,0.0,0.0,0.0,0.0,0.0,-0.4124762941839601,0.4588102613772584,10.017450956760866,0.0,0.0,0.0,0.0,0.0,0.0,0.0,0.0,0.0
1753722553397914857,142687,1753722553397914857,imu_link,0.0,0.0,0.0,0.0,-1.0,0.0,0.0,0.0,0.0,0.0,0.0,0.0,0.0,0.007396458495584708,0.017045077441220635,0.0037122975839369754,0.0,0.0,0.0,0.0,0.0,0.0,0.0,0.0,0.0,-0.4129107819302369,0.43264696433044436,9.870398133113406,0.0,0.0,0.0,0.0,0.0,0.0,0.0,0.0,0.0
1753722553402912070,142688,1753722553402912070,imu_link,0.0,0.0,0.0,0.0,-1.0,0.0,0.0,0.0,0.0,0.0,0.0,0.0,0.0,0.00792114912674989,0.01903624029525682,0.0037038037225905172,0.0,0.0,0.0,0.0,0.0,0.0,0.0,0.0,0.0,-0.4223222090911866,0.4883445943615724,9.765476734485171,0.0,0.0,0.0,0.0,0.0,0.0,0.0,0.0,0.0
1753722553408017478,142689,1753722553408017478,imu_link,0.0,0.0,0.0,0.0,-1.0,0.0,0.0,0.0,0.0,0.0,0.0,0.0,0.0,0.00543613582314994,0.01790225129672097,0.0037318516229321954,0.0,0.0,0.0,0.0,0.0,0.0,0.0,0.0,0.0,-0.27425214901336675,0.5091875563342286,9.758999640878908,0.0,0.0,0.0,0.0,0.0,0.0,0.0,0.0,0.0
1753722553412976859,142690,1753722553412976859,imu_link,0.0,0.0,0.0,0.0,-1.0,0.0,0.0,0.0,0.0,0.0,0.0,0.0,0.0,0.002075395327008787,0.014777159970476818,0.004213060140145151,0.0,0.0,0.0,0.0,0.0,0.0,0.0,0.0,0.0,-0.09983796980834964,0.4275780204306031,9.666739259469912,0.0,0.0,0.0,0.0,0.0,0.0,0.0,0.0,0.0
1753722553418030967,142691,1753722553418030967,imu_link,0.0,0.0,0.0,0.0,-1.0,0.0,0.0,0.0,0.0,0.0,0.0,0.0,0.0,0.005519625839833823,0.010055936921767478,0.00514520594045176,0.0,0.0,0.0,0.0,0.0,0.0,0.0,0.0,0.0,-0.04552352993133546,0.369119516755066,9.702607333236086,0.0,0.0,0.0,0.0,0.0,0.0,0.0,0.0,0.0
1753722553422880898,142692,1753722553422880898,imu_link,0.0,0.0,0.0,0.0,-1.0,0.0,0.0,0.0,0.0,0.0,0.0,0.0,0.0,0.016422475386980953,0.0047518130548221665,0.0061225810480421946,0.0,0.0,0.0,0.0,0.0,0.0,0.0,0.0,0.0,-0.0412444930142212,0.31578651999359136,9.954621119694217,0.0,0.0,0.0,0.0,0.0,0.0,0.0,0.0,0.0
1753722553427870487,142693,1753722553427870487,imu_link,0.0,0.0,0.0,0.0,-1.0,0.0,0.0,0.0,0.0,0.0,0.0,0.0,0.0,0.02052800848809502,0.0003212656782338926,0.00716240722074386,0.0,0.0,0.0,0.0,0.0,0.0,0.0,0.0,0.0,-0.08172026773040773,0.3482740408706666,10.16223647143616,0.0,0.0,0.0,0.0,0.0,0.0,0.0,0.0,0.0
1753722553432889100,142694,1753722553432889100,imu_link,0.0,0.0,0.0,0.0,-1.0,0.0,0.0,0.0,0.0,0.0,0.0,0.0,0.0,0.015673550851357788,-0.0034720968341830608,0.007754007689841099,0.0,0.0,0.0,0.0,0.0,0.0,0.0,0.0,0.0,-0.07133434063873292,0.3758748165942384,10.262426568453677,0.0,0.0,0.0,0.0,0.0,0.0,0.0,0.0,0.0
1753722553438763285,142695,1753722553438763285,imu_link,0.0,0.0,0.0,0.0,-1.0,0.0,0.0,0.0,0.0,0.0,0.0,0.0,0.0,0.005937414870689396,-0.006526505514723691,0.008426176771529662,0.0,0.0,0.0,0.0,0.0,0.0,0.0,0.0,0.0,-0.07146530346954348,0.38071631133636485,10.237561168126835,0.0,0.0,0.0,0.0,0.0,0.0,0.0,0.0,0.0
1753722553443769833,142696,1753722553443769833,imu_link,0.0,0.0,0.0,0.0,-1.0,0.0,0.0,0.0,0.0,0.0,0.0,0.0,0.0,-0.0023401616957067586,-0.007766673832723062,0.009428480656031461,0.0,0.0,0.0,0.0,0.0,0.0,0.0,0.0,0.0,-0.07705444753509523,0.38085044648437505,10.161470267049868,0.0,0.0,0.0,0.0,0.0,0.0,0.0,0.0,0.0
1753722553448754119,142697,1753722553448754119,imu_link,0.0,0.0,0.0,0.0,-1.0,0.0,0.0,0.0,0.0,0.0,0.0,0.0,0.0,-0.002968993926630018,-0.008361696056890038,0.010299757145928887,0.0,0.0,0.0,0.0,0.0,0.0,0.0,0.0,0.0,-0.12962483121276858,0.3817914874468995,10.028906313879093,0.0,0.0,0.0,0.0,0.0,0.0,0.0,0.0,0.0
1753722553453813405,142698,1753722553453813405,imu_link,0.0,0.0,0.0,0.0,-1.0,0.0,0.0,0.0,0.0,0.0,0.0,0.0,0.0,-2.0905793651307462e-05,-0.007663972759568636,0.010508419643766448,0.0,0.0,0.0,0.0,0.0,0.0,0.0,0.0,0.0,-0.18998564781738286,0.3770227165802003,9.833749848881228,0.0,0.0,0.0,0.0,0.0,0.0,0.0,0.0,0.0
1753722553458730963,142699,1753722553458730963,imu_link,0.0,0.0,0.0,0.0,-1.0,0.0,0.0,0.0,0.0,0.0,0.0,0.0,0.0,0.004913115718634369,-0.006201350011151087,0.010098305351286632,0.0,0.0,0.0,0.0,0.0,0.0,0.0,0.0,0.0,-0.21498709865356452,0.368245393728943,9.7136157527594,0.0,0.0,0.0,0.0,0.0,0.0,0.0,0.0,0.0
1753722553463736948,142700,1753722553463736948,imu_link,0.0,0.0,0.0,0.0,-1.0,0.0,0.0,0.0,0.0,0.0,0.0,0.0,0.0,0.00903018917293175,-0.00587247415595785,0.009596029636881342,0.0,0.0,0.0,0.0,0.0,0.0,0.0,0.0,0.0,-0.21609417750122076,0.4182123823764039,9.61765585094513,0.0,0.0,0.0,0.0,0.0,0.0,0.0,0.0,0.0
1753722553468730627,142701,1753722553468730627,imu_link,0.0,0.0,0.0,0.0,-1.0,0.0,0.0,0.0,0.0,0.0,0.0,0.0,0.0,0.012394129494273728,-0.005848792221400906,0.009092914624062722,0.0,0.0,0.0,0.0,0.0,0.0,0.0,0.0,0.0,-0.2418448937469483,0.44262300409790045,9.674651018565982,0.0,0.0,0.0,0.0,0.0,0.0,0.0,0.0,0.0
1753722553473827635,142702,1753722553473827635,imu_link,0.0,0.0,0.0,0.0,-1.0,0.0,0.0,0.0,0.0,0.0,0.0,0.0,0.0,0.01734465048354072,-0.006056611385736611,0.008607727509563493,0.0,0.0,0.0,0.0,0.0,0.0,0.0,0.0,0.0,-0.289762026788025,0.41654781367218024,9.689984383823244,0.0,0.0,0.0,0.0,0.0,0.0,0.0,0.0,0.0
1753722553478778412,142703,1753722553478778412,imu_link,0.0,0.0,0.0,0.0,-1.0,0.0,0.0,0.0,0.0,0.0,0.0,0.0,0.0,0.0205273911195506,-0.005962383998486017,0.008069144068604553,0.0,0.0,0.0,0.0,0.0,0.0,0.0,0.0,0.0,-0.27945528791625984,0.42477949796508796,9.744730258839418,0.0,0.0,0.0,0.0,0.0,0.0,0.0,0.0,0.0
1753722553483763300,142704,1753722553483763300,imu_link,0.0,0.0,0.0,0.0,-1.0,0.0,0.0,0.0,0.0,0.0,0.0,0.0,0.0,0.016683134035559828,-0.005596873574568552,0.008058790031447778,0.0,0.0,0.0,0.0,0.0,0.0,0.0,0.0,0.0,-0.22726145230468753,0.4012015197259522,9.82495576661835,0.0,0.0,0.0,0.0,0.0,0.0,0.0,0.0,0.0
1753722553488731489,142705,1753722553488731489,imu_link,0.0,0.0,0.0,0.0,-1.0,0.0,0.0,0.0,0.0,0.0,0.0,0.0,0.0,0.008453494320848201,-0.005159829101268655,0.008757719820238343,0.0,0.0,0.0,0.0,0.0,0.0,0.0,0.0,0.0,-0.18574324218566898,0.33240192038482674,9.82028611570038,0.0,0.0,0.0,0.0,0.0,0.0,0.0,0.0,0.0
1753722553493741351,142706,1753722553493741351,imu_link,0.0,0.0,0.0,0.0,-1.0,0.0,0.0,0.0,0.0,0.0,0.0,0.0,0.0,0.006076536652876189,-0.0032875036394009027,0.009309836948112257,0.0,0.0,0.0,0.0,0.0,0.0,0.0,0.0,0.0,-0.18492747782501226,0.3006185342160035,9.876798971396791,0.0,0.0,0.0,0.0,0.0,0.0,0.0,0.0,0.0
1753722553498744321,142707,1753722553498744321,imu_link,0.0,0.0,0.0,0.0,-1.0,0.0,0.0,0.0,0.0,0.0,0.0,0.0,0.0,0.009651467718135022,-0.0010594044222280393,0.009691330357679755,0.0,0.0,0.0,0.0,0.0,0.0,0.0,0.0,0.0,-0.26005124114135747,0.2632703051284791,9.921589696054994,0.0,0.0,0.0,0.0,0.0,0.0,0.0,0.0,0.0
1753722553503764337,142708,1753722553503764337,imu_link,0.0,0.0,0.0,0.0,-1.0,0.0,0.0,0.0,0.0,0.0,0.0,0.0,0.0,0.0184597229870684,0.0013223832467091552,0.009533901378852162,0.0,0.0,0.0,0.0,0.0,0.0,0.0,0.0,0.0,-0.3249426654025269,0.30430171419494634,9.978576424114992,0.0,0.0,0.0,0.0,0.0,0.0,0.0,0.0,0.0
1753722553508053263,142709,1753722553508053263,imu_link,0.0,0.0,0.0,0.0,-1.0,0.0,0.0,0.0,0.0,0.0,0.0,0.0,0.0,0.023596995943478763,0.0020564384811153605,0.009326405021598509,0.0,0.0,0.0,0.0,0.0,0.0,0.0,0.0,0.0,-0.3981579507205201,0.4452639282391358,10.0828974168219,0.0,0.0,0.0,0.0,0.0,0.0,0.0,0.0,0.0
1753722553513123027,142710,1753722553513123027,imu_link,0.0,0.0,0.0,0.0,-1.0,0.0,0.0,0.0,0.0,0.0,0.0,0.0,0.0,0.01806913448796412,3.344281370045093e-05,0.009565822964178449,0.0,0.0,0.0,0.0,0.0,0.0,0.0,0.0,0.0,-0.4418097536489869,0.5195391864871217,10.214088115775454,0.0,0.0,0.0,0.0,0.0,0.0,0.0,0.0,0.0
1753722553518042454,142711,1753722553518042454,imu_link,0.0,0.0,0.0,0.0,-1.0,0.0,0.0,0.0,0.0,0.0,0.0,0.0,0.0,0.011396114908874677,-0.003169953440472146,0.00982245862949727,0.0,0.0,0.0,0.0,0.0,0.0,0.0,0.0,0.0,-0.4534120548941041,0.5274255670455934,10.279894364490968,0.0,0.0,0.0,0.0,0.0,0.0,0.0,0.0,0.0
1753722553522944822,142712,1753722553522944822,imu_link,0.0,0.0,0.0,0.0,-1.0,0.0,0.0,0.0,0.0,0.0,0.0,0.0,0.0,0.007399904461185599,-0.006716001342064494,0.00996990076422392,0.0,0.0,0.0,0.0,0.0,0.0,0.0,0.0,0.0,-0.45145162271972666,0.46984190465667736,10.267487192502749,0.0,0.0,0.0,0.0,0.0,0.0,0.0,0.0,0.0
1753722553527964945,142713,1753722553527964945,imu_link,0.0,0.0,0.0,0.0,-1.0,0.0,0.0,0.0,0.0,0.0,0.0,0.0,0.0,0.006160676318812701,-0.010525161226059303,0.01011055184496193,0.0,0.0,0.0,0.0,0.0,0.0,0.0,0.0,0.0,-0.37737304813812267,0.40514303406402596,10.232691481660158,0.0,0.0,0.0,0.0,0.0,0.0,0.0,0.0,0.0
1753722553532747645,142714,1753722553532747645,imu_link,0.0,0.0,0.0,0.0,-1.0,0.0,0.0,0.0,0.0,0.0,0.0,0.0,0.0,0.0037082100392605085,-0.014556283259672162,0.010397680674268961,0.0,0.0,0.0,0.0,0.0,0.0,0.0,0.0,0.0,-0.32002605258331307,0.4044686473114015,10.170214490063174,0.0,0.0,0.0,0.0,0.0,0.0,0.0,0.0,0.0
1753722553537920625,142715,1753722553537920625,imu_link,0.0,0.0,0.0,0.0,-1.0,0.0,0.0,0.0,0.0,0.0,0.0,0.0,0.0,-0.00022309197440522816,-0.017798718995330264,0.0104308854177464,0.0,0.0,0.0,0.0,0.0,0.0,0.0,0.0,0.0,-0.2904658622210694,0.38943970479522716,10.121834737406314,0.0,0.0,0.0,0.0,0.0,0.0,0.0,0.0,0.0
1753722553542911658,142716,1753722553542911658,imu_link,0.0,0.0,0.0,0.0,-1.0,0.0,0.0,0.0,0.0,0.0,0.0,0.0,0.0,4.385737718511114e-05,-0.01858053353752587,0.010008815157965131,0.0,0.0,0.0,0.0,0.0,0.0,0.0,0.0,0.0,-0.3227719624673463,0.36541478896118174,10.066660360148012,0.0,0.0,0.0,0.0,0.0,0.0,0.0,0.0,0.0
1753722553547976998,142717,1753722553547976998,imu_link,0.0,0.0,0.0,0.0,-1.0,0.0,0.0,0.0,0.0,0.0,0.0,0.0,0.0,0.003907640254551422,-0.016395787311472412,0.008798107021291409,0.0,0.0,0.0,0.0,0.0,0.0,0.0,0.0,0.0,-0.3552661272540284,0.3749847721270753,10.010314739437563,0.0,0.0,0.0,0.0,0.0,0.0,0.0,0.0,0.0
1753722553552916757,142718,1753722553552916757,imu_link,0.0,0.0,0.0,0.0,-1.0,0.0,0.0,0.0,0.0,0.0,0.0,0.0,0.0,0.008193933216348296,-0.012164133483401141,0.007500341849677144,0.0,0.0,0.0,0.0,0.0,0.0,0.0,0.0,0.0,-0.38200127936737066,0.3951255147528077,9.981603772404176,0.0,0.0,0.0,0.0,0.0,0.0,0.0,0.0,0.0
1753722553557910149,142719,1753722553557910149,imu_link,0.0,0.0,0.0,0.0,-1.0,0.0,0.0,0.0,0.0,0.0,0.0,0.0,0.0,0.009897087591778863,-0.006262170900497961,0.006699066075522409,0.0,0.0,0.0,0.0,0.0,0.0,0.0,0.0,0.0,-0.49133638875610364,0.36480091565551764,10.008197247634278,0.0,0.0,0.0,0.0,0.0,0.0,0.0,0.0,0.0
1753722553562729806,142720,1753722553562729806,imu_link,0.0,0.0,0.0,0.0,-1.0,0.0,0.0,0.0,0.0,0.0,0.0,0.0,0.0,0.011212288380912391,0.00046476149638247316,0.006252264758167532,0.0,0.0,0.0,0.0,0.0,0.0,0.0,0.0,0.0,-0.6114303820001222,0.3604041438717652,10.067969808890993,0.0,0.0,0.0,0.0,0.0,0.0,0.0,0.0,0.0
1753722553567938258,142721,1753722553567938258,imu_link,0.0,0.0,0.0,0.0,-1.0,0.0,0.0,0.0,0.0,0.0,0.0,0.0,0.0,0.010255944154717558,0.006997255082478204,0.006236806334025829,0.0,0.0,0.0,0.0,0.0,0.0,0.0,0.0,0.0,-0.7250381238165284,0.39768210314056407,10.209527999583438,0.0,0.0,0.0,0.0,0.0,0.0,0.0,0.0,0.0
1753722553572784235,142722,1753722553572784235,imu_link,0.0,0.0,0.0,0.0,-1.0,0.0,0.0,0.0,0.0,0.0,0.0,0.0,0.0,0.005790549753621911,0.011798558498067267,0.00616143491545552,0.0,0.0,0.0,0.0,0.0,0.0,0.0,0.0,0.0,-0.807438284963379,0.4059686745065309,10.280741133763124,0.0,0.0,0.0,0.0,0.0,0.0,0.0,0.0,0.0
1753722553577975989,142723,1753722553577975989,imu_link,0.0,0.0,0.0,0.0,-1.0,0.0,0.0,0.0,0.0,0.0,0.0,0.0,0.0,0.0041178078404090455,0.013974665599587342,0.005934295747259081,0.0,0.0,0.0,0.0,0.0,0.0,0.0,0.0,0.0,-0.8661418950338747,0.3758387240042115,10.262659823550417,0.0,0.0,0.0,0.0,0.0,0.0,0.0,0.0,0.0
1753722553583149329,142724,1753722553583149329,imu_link,0.0,0.0,0.0,0.0,-1.0,0.0,0.0,0.0,0.0,0.0,0.0,0.0,0.0,0.002761578271146876,0.0134008840814193,0.005653925691232484,0.0,0.0,0.0,0.0,0.0,0.0,0.0,0.0,0.0,-0.9169937806149294,0.3579377570315552,10.179219082507021,0.0,0.0,0.0,0.0,0.0,0.0,0.0,0.0,0.0
1753722553587951180,142725,1753722553587951180,imu_link,0.0,0.0,0.0,0.0,-1.0,0.0,0.0,0.0,0.0,0.0,0.0,0.0,0.0,0.0012674414813441286,0.00901519881905902,0.005538086369838597,0.0,0.0,0.0,0.0,0.0,0.0,0.0,0.0,0.0,-0.894845499897156,0.3965821470428467,10.07367854332947,0.0,0.0,0.0,0.0,0.0,0.0,0.0,0.0,0.0
1753722553593801224,142726,1753722553593801224,imu_link,0.0,0.0,0.0,0.0,-1.0,0.0,0.0,0.0,0.0,0.0,0.0,0.0,0.0,0.0008612977159735341,0.0029984339325130407,0.005581205325823517,0.0,0.0,0.0,0.0,0.0,0.0,0.0,0.0,0.0,-0.7597581778866579,0.4472685334341432,9.97219240509827,0.0,0.0,0.0,0.0,0.0,0.0,0.0,0.0,0.0
1753722553598765356,142727,1753722553598765356,imu_link,0.0,0.0,0.0,0.0,-1.0,0.0,0.0,0.0,0.0,0.0,0.0,0.0,0.0,0.0012888193803529352,-0.0032988745188661382,0.0055271674202882325,0.0,0.0,0.0,0.0,0.0,0.0,0.0,0.0,0.0,-0.62694780151001,0.4391202272140504,9.839704647395326,0.0,0.0,0.0,0.0,0.0,0.0,0.0,0.0,0.0
1753722553603809369,142728,1753722553603809369,imu_link,0.0,0.0,0.0,0.0,-1.0,0.0,0.0,0.0,0.0,0.0,0.0,0.0,0.0,0.004461649838943858,-0.007914305616610417,0.005337130891084994,0.0,0.0,0.0,0.0,0.0,0.0,0.0,0.0,0.0,-0.48345772949798593,0.38186139813537606,9.775737325119936,0.0,0.0,0.0,0.0,0.0,0.0,0.0,0.0,0.0
1753722553609743646,142729,1753722553609743646,imu_link,0.0,0.0,0.0,0.0,-1.0,0.0,0.0,0.0,0.0,0.0,0.0,0.0,0.0,0.00486975465733791,-0.009666611405371724,0.005053068729057443,0.0,0.0,0.0,0.0,0.0,0.0,0.0,0.0,0.0,-0.3550586098251343,0.36372358476348887,9.78319837575348,0.0,0.0,0.0,0.0,0.0,0.0,0.0,0.0,0.0
1753722553613764484,142730,1753722553613764484,imu_link,0.0,0.0,0.0,0.0,-1.0,0.0,0.0,0.0,0.0,0.0,0.0,0.0,0.0,0.0006096938060461793,-0.009705150535880051,0.0049114169463650775,0.0,0.0,0.0,0.0,0.0,0.0,0.0,0.0,0.0,-0.25235813251190187,0.3784606142422486,9.837810893737185,0.0,0.0,0.0,0.0,0.0,0.0,0.0,0.0,0.0
1753722553618909957,142731,1753722553618909957,imu_link,0.0,0.0,0.0,0.0,-1.0,0.0,0.0,0.0,0.0,0.0,0.0,0.0,0.0,-0.0009114256207274798,-0.00760709011662278,0.004613550746491333,0.0,0.0,0.0,0.0,0.0,0.0,0.0,0.0,0.0,-0.16198144911407475,0.37642111355804453,9.899028475405885,0.0,0.0,0.0,0.0,0.0,0.0,0.0,0.0,0.0
1753722553623772607,142732,1753722553623772607,imu_link,0.0,0.0,0.0,0.0,-1.0,0.0,0.0,0.0,0.0,0.0,0.0,0.0,0.0,0.0003327616454434226,-0.003736419343143213,0.0038969997261093263,0.0,0.0,0.0,0.0,0.0,0.0,0.0,0.0,0.0,-0.2010116048678589,0.3416409051712037,9.950583059174196,0.0,0.0,0.0,0.0,0.0,0.0,0.0,0.0,0.0
1753722553628778087,142733,1753722553628778087,imu_link,0.0,0.0,0.0,0.0,-1.0,0.0,0.0,0.0,0.0,0.0,0.0,0.0,0.0,0.003878083231101156,0.001797067025776161,0.0027376663365439717,0.0,0.0,0.0,0.0,0.0,0.0,0.0,0.0,0.0,-0.2773161884429932,0.29382408917968755,10.032041042112734,0.0,0.0,0.0,0.0,0.0,0.0,0.0,0.0,0.0
1753722553633764780,142734,1753722553633764780,imu_link,0.0,0.0,0.0,0.0,-1.0,0.0,0.0,0.0,0.0,0.0,0.0,0.0,0.0,0.004553690208213559,0.006993776836169108,0.001778219127272927,0.0,0.0,0.0,0.0,0.0,0.0,0.0,0.0,0.0,-0.37445415718414315,0.3029035004254151,10.102487014225465,0.0,0.0,0.0,0.0,0.0,0.0,0.0,0.0,0.0
1753722553638741792,142735,1753722553638741792,imu_link,0.0,0.0,0.0,0.0,-1.0,0.0,0.0,0.0,0.0,0.0,0.0,0.0,0.0,0.0004301364017440116,0.009919720403319142,0.0011841774296176802,0.0,0.0,0.0,0.0,0.0,0.0,0.0,0.0,0.0,-0.48563878735534677,0.31366848949493414,10.117017723376161,0.0,0.0,0.0,0.0,0.0,0.0,0.0,0.0,0.0
1753722553643821645,142736,1753722553643821645,imu_link,0.0,0.0,0.0,0.0,-1.0,0.0,0.0,0.0,0.0,0.0,0.0,0.0,0.0,-0.0009752445808489002,0.011866553774812718,0.0004466318436368016,0.0,0.0,0.0,0.0,0.0,0.0,0.0,0.0,0.0,-0.5572126080151368,0.3192606263125611,10.077629634474185,0.0,0.0,0.0,0.0,0.0,0.0,0.0,0.0,0.0
1753722553648793473,142737,1753722553648793473,imu_link,0.0,0.0,0.0,0.0,-1.0,0.0,0.0,0.0,0.0,0.0,0.0,0.0,0.0,-0.0001677870510728946,0.01268112920074794,0.0003330965577910502,0.0,0.0,0.0,0.0,0.0,0.0,0.0,0.0,0.0,-0.6404143478778077,0.3522161537591553,10.01198816668793,0.0,0.0,0.0,0.0,0.0,0.0,0.0,0.0,0.0
1753722553653871670,142738,1753722553653871670,imu_link,0.0,0.0,0.0,0.0,-1.0,0.0,0.0,0.0,0.0,0.0,0.0,0.0,0.0,3.026316394225168e-06,0.012208822088822532,0.0008550070129620714,0.0,0.0,0.0,0.0,0.0,0.0,0.0,0.0,0.0,-0.6672699283346559,0.3702253985018922,9.917232368743594,0.0,0.0,0.0,0.0,0.0,0.0,0.0,0.0,0.0
1753722553658841011,142739,1753722553658841011,imu_link,0.0,0.0,0.0,0.0,-1.0,0.0,0.0,0.0,0.0,0.0,0.0,0.0,0.0,0.0013500236031097452,0.010520307014562965,0.0015025822300868987,0.0,0.0,0.0,0.0,0.0,0.0,0.0,0.0,0.0,-0.6335531046151734,0.4096905806973267,9.812502147117922,0.0,0.0,0.0,0.0,0.0,0.0,0.0,0.0,0.0
1753722553663767302,142740,1753722553663767302,imu_link,0.0,0.0,0.0,0.0,-1.0,0.0,0.0,0.0,0.0,0.0,0.0,0.0,0.0,-0.0014045376490910543,0.007638382228139068,0.001926068805940666,0.0,0.0,0.0,0.0,0.0,0.0,0.0,0.0,0.0,-0.5683066801028444,0.4874292312118531,9.716990918694766,0.0,0.0,0.0,0.0,0.0,0.0,0.0,0.0,0.0
1753722553667954995,142741,1753722553667954995,imu_link,0.0,0.0,0.0,0.0,-1.0,0.0,0.0,0.0,0.0,0.0,0.0,0.0,0.0,-0.004137353809227215,0.005326744573220014,0.0019955812759717556,0.0,0.0,0.0,0.0,0.0,0.0,0.0,0.0,0.0,-0.49988356897277847,0.5254876403668214,9.665890335416263,0.0,0.0,0.0,0.0,0.0,0.0,0.0,0.0,0.0
1753722553673787931,142742,1753722553673787931,imu_link,0.0,0.0,0.0,0.0,-1.0,0.0,0.0,0.0,0.0,0.0,0.0,0.0,0.0,-0.004251817165433862,0.0035569789564082886,0.002376594510004704,0.0,0.0,0.0,0.0,0.0,0.0,0.0,0.0,0.0,-0.42400676937927256,0.49502453670349134,9.631071161397402,0.0,0.0,0.0,0.0,0.0,0.0,0.0,0.0,0.0
1753722553677932795,142743,1753722553677932795,imu_link,0.0,0.0,0.0,0.0,-1.0,0.0,0.0,0.0,0.0,0.0,0.0,0.0,0.0,-0.0006556978503269275,0.0015277571473983264,0.0029547742746656855,0.0,0.0,0.0,0.0,0.0,0.0,0.0,0.0,0.0,-0.35531748287963877,0.4505282389944459,9.65084714740021,0.0,0.0,0.0,0.0,0.0,0.0,0.0,0.0,0.0
1753722553682952141,142744,1753722553682952141,imu_link,0.0,0.0,0.0,0.0,-1.0,0.0,0.0,0.0,0.0,0.0,0.0,0.0,0.0,0.005133189446822423,0.0005618255508665884,0.002997614809542337,0.0,0.0,0.0,0.0,0.0,0.0,0.0,0.0,0.0,-0.2730010589358521,0.43791755986511244,9.796170100493166,0.0,0.0,0.0,0.0,0.0,0.0,0.0,0.0,0.0
1753722553687961843,142745,1753722553687961843,imu_link,0.0,0.0,0.0,0.0,-1.0,0.0,0.0,0.0,0.0,0.0,0.0,0.0,0.0,0.004935570986279519,0.001398848174269911,0.0026418814051224824,0.0,0.0,0.0,0.0,0.0,0.0,0.0,0.0,0.0,-0.1257408375695801,0.4692456287332154,9.941077420177919,0.0,0.0,0.0,0.0,0.0,0.0,0.0,0.0,0.0
1753722553692794033,142746,1753722553692794033,imu_link,0.0,0.0,0.0,0.0,-1.0,0.0,0.0,0.0,0.0,0.0,0.0,0.0,0.0,-0.0019378633697010928,0.003878821652301347,0.0022721099277219488,0.0,0.0,0.0,0.0,0.0,0.0,0.0,0.0,0.0,-0.04111245279266359,0.4916843261123658,10.051841448972475,0.0,0.0,0.0,0.0,0.0,0.0,0.0,0.0,0.0
1753722553698038544,142747,1753722553698038544,imu_link,0.0,0.0,0.0,0.0,-1.0,0.0,0.0,0.0,0.0,0.0,0.0,0.0,0.0,-0.003915827449169932,0.007430046572472082,0.0022943311602326125,0.0,0.0,0.0,0.0,0.0,0.0,0.0,0.0,0.0,-0.03740598920257569,0.424663798169861,10.106118479448549,0.0,0.0,0.0,0.0,0.0,0.0,0.0,0.0,0.0
1753722553702778169,142748,1753722553702778169,imu_link,0.0,0.0,0.0,0.0,-1.0,0.0,0.0,0.0,0.0,0.0,0.0,0.0,0.0,0.0007323161112516575,0.01086088462648054,0.002499846289020181,0.0,0.0,0.0,0.0,0.0,0.0,0.0,0.0,0.0,-0.12352590175872805,0.41351531784942636,10.07513685156067,0.0,0.0,0.0,0.0,0.0,0.0,0.0,0.0,0.0
1753722553708459102,142749,1753722553708459102,imu_link,0.0,0.0,0.0,0.0,-1.0,0.0,0.0,0.0,0.0,0.0,0.0,0.0,0.0,0.0010630884580519427,0.013090581738709554,0.0023154548486643044,0.0,0.0,0.0,0.0,0.0,0.0,0.0,0.0,0.0,-0.2581807710943604,0.43101244285705576,10.010498374704897,0.0,0.0,0.0,0.0,0.0,0.0,0.0,0.0,0.0
1753722553712814926,142750,1753722553712814926,imu_link,0.0,0.0,0.0,0.0,-1.0,0.0,0.0,0.0,0.0,0.0,0.0,0.0,0.0,-0.006130675435624616,0.013254846157499571,0.0016045126013329277,0.0,0.0,0.0,0.0,0.0,0.0,0.0,0.0,0.0,-0.34412608649444587,0.41605179494323735,9.841365864217225,0.0,0.0,0.0,0.0,0.0,0.0,0.0,0.0,0.0
1753722553717970399,142751,1753722553717970399,imu_link,0.0,0.0,0.0,0.0,-1.0,0.0,0.0,0.0,0.0,0.0,0.0,0.0,0.0,-0.012274017014131194,0.010729913723115526,0.0014535841501201303,0.0,0.0,0.0,0.0,0.0,0.0,0.0,0.0,0.0,-0.3754427230496217,0.3864538959048463,9.711256446588443,0.0,0.0,0.0,0.0,0.0,0.0,0.0,0.0,0.0
1753722553722822738,142752,1753722553722822738,imu_link,0.0,0.0,0.0,0.0,-1.0,0.0,0.0,0.0,0.0,0.0,0.0,0.0,0.0,-0.009190499204966646,0.006750937138519429,0.0018047942203027493,0.0,0.0,0.0,0.0,0.0,0.0,0.0,0.0,0.0,-0.397114557637024,0.32458443297912604,9.693186748253787,0.0,0.0,0.0,0.0,0.0,0.0,0.0,0.0,0.0
1753722553727989341,142753,1753722553727989341,imu_link,0.0,0.0,0.0,0.0,-1.0,0.0,0.0,0.0,0.0,0.0,0.0,0.0,0.0,0.003343442071631761,0.0034370117394526777,0.002186206928099736,0.0,0.0,0.0,0.0,0.0,0.0,0.0,0.0,0.0,-0.41825829119323743,0.2839991833920289,9.795205955484622,0.0,0.0,0.0,0.0,0.0,0.0,0.0,0.0,0.0
1753722553732805341,142754,1753722553732805341,imu_link,0.0,0.0,0.0,0.0,-1.0,0.0,0.0,0.0,0.0,0.0,0.0,0.0,0.0,0.008524879071955184,0.0026049805205555633,0.0019558477592598418,0.0,0.0,0.0,0.0,0.0,0.0,0.0,0.0,0.0,-0.4330280015246583,0.35639445464141856,9.915786390650942,0.0,0.0,0.0,0.0,0.0,0.0,0.0,0.0,0.0
1753722553737980198,142755,1753722553737980198,imu_link,0.0,0.0,0.0,0.0,-1.0,0.0,0.0,0.0,0.0,0.0,0.0,0.0,0.0,0.0015780222451621435,0.0025624627927609625,0.001411393264496106,0.0,0.0,0.0,0.0,0.0,0.0,0.0,0.0,0.0,-0.44816737659240735,0.4317237601702882,10.036404055653078,0.0,0.0,0.0,0.0,0.0,0.0,0.0,0.0,0.0
1753722553742758499,142756,1753722553742758499,imu_link,0.0,0.0,0.0,0.0,-1.0,0.0,0.0,0.0,0.0,0.0,0.0,0.0,0.0,-0.006799947323751773,0.0016633805078333959,0.001048792139405623,0.0,0.0,0.0,0.0,0.0,0.0,0.0,0.0,0.0,-0.4129781787069703,0.4556572773559571,10.080867253524172,0.0,0.0,0.0,0.0,0.0,0.0,0.0,0.0,0.0
1753722553748753313,142757,1753722553748753313,imu_link,0.0,0.0,0.0,0.0,-1.0,0.0,0.0,0.0,0.0,0.0,0.0,0.0,0.0,-0.009510941725141308,0.0005844220466101363,0.0008329915699662148,0.0,0.0,0.0,0.0,0.0,0.0,0.0,0.0,0.0,-0.4603415329040528,0.42694966220489505,10.123675220077518,0.0,0.0,0.0,0.0,0.0,0.0,0.0,0.0,0.0
1753722553753903132,142758,1753722553753903132,imu_link,0.0,0.0,0.0,0.0,-1.0,0.0,0.0,0.0,0.0,0.0,0.0,0.0,0.0,-0.00792668526820706,0.00011608142670542619,0.0005510074785293648,0.0,0.0,0.0,0.0,0.0,0.0,0.0,0.0,0.0,-0.5154612625094606,0.42119825112182624,10.16735838704773,0.0,0.0,0.0,0.0,0.0,0.0,0.0,0.0,0.0
1753722553758775413,142759,1753722553758775413,imu_link,0.0,0.0,0.0,0.0,-1.0,0.0,0.0,0.0,0.0,0.0,0.0,0.0,0.0,-0.007446735698614103,0.0011118484677956988,0.00027592742355987394,0.0,0.0,0.0,0.0,0.0,0.0,0.0,0.0,0.0,-0.5077024330444337,0.43549821908752445,10.179641419679873,0.0,0.0,0.0,0.0,0.0,0.0,0.0,0.0,0.0
1753722553763757101,142760,1753722553763757101,imu_link,0.0,0.0,0.0,0.0,-1.0,0.0,0.0,0.0,0.0,0.0,0.0,0.0,0.0,-0.009548238048383739,0.0025105634841442637,-2.4844040052325813e-05,0.0,0.0,0.0,0.0,0.0,0.0,0.0,0.0,0.0,-0.5009778388415529,0.4661504048269654,10.12729633037842,0.0,0.0,0.0,0.0,0.0,0.0,0.0,0.0,0.0
1753722553768698196,142761,1753722553768698196,imu_link,0.0,0.0,0.0,0.0,-1.0,0.0,0.0,0.0,0.0,0.0,0.0,0.0,0.0,-0.008274312179778916,0.003886109022178641,-0.0002336840817850162,0.0,0.0,0.0,0.0,0.0,0.0,0.0,0.0,0.0,-0.46364858380218515,0.4408333982119752,10.070544593211366,0.0,0.0,0.0,0.0,0.0,0.0,0.0,0.0,0.0
1753722553773760358,142762,1753722553773760358,imu_link,0.0,0.0,0.0,0.0,-1.0,0.0,0.0,0.0,0.0,0.0,0.0,0.0,0.0,-0.007809478051802982,0.006171010180526848,-0.0002967081294668868,0.0,0.0,0.0,0.0,0.0,0.0,0.0,0.0,0.0,-0.4523205383572389,0.4930635059786988,10.030400654845279,0.0,0.0,0.0,0.0,0.0,0.0,0.0,0.0,0.0
1753722553778773079,142763,1753722553778773079,imu_link,0.0,0.0,0.0,0.0,-1.0,0.0,0.0,0.0,0.0,0.0,0.0,0.0,0.0,-0.012134923477564081,0.008943406524010948,-0.0005108381722566828,0.0,0.0,0.0,0.0,0.0,0.0,0.0,0.0,0.0,-0.46647870972961436,0.5057653443362428,9.974823513012696,0.0,0.0,0.0,0.0,0.0,0.0,0.0,0.0,0.0
1753722553783760714,142764,1753722553783760714,imu_link,0.0,0.0,0.0,0.0,-1.0,0.0,0.0,0.0,0.0,0.0,0.0,0.0,0.0,-0.012355138433850532,0.011403898594640624,-0.0009274207116430912,0.0,0.0,0.0,0.0,0.0,0.0,0.0,0.0,0.0,-0.4720145229531862,0.4813080356823731,9.892460342281497,0.0,0.0,0.0,0.0,0.0,0.0,0.0,0.0,0.0
1753722553788768857,142765,1753722553788768857,imu_link,0.0,0.0,0.0,0.0,-1.0,0.0,0.0,0.0,0.0,0.0,0.0,0.0,0.0,-0.012262069117006794,0.011206191362150156,-0.0015000966155551084,0.0,0.0,0.0,0.0,0.0,0.0,0.0,0.0,0.0,-0.5435374069726564,0.527481232234192,9.77598267093506,0.0,0.0,0.0,0.0,0.0,0.0,0.0,0.0,0.0
1753722553793810065,142766,1753722553793810065,imu_link,0.0,0.0,0.0,0.0,-1.0,0.0,0.0,0.0,0.0,0.0,0.0,0.0,0.0,-0.01869717987662488,0.008330553243649197,-0.0022596213287351128,0.0,0.0,0.0,0.0,0.0,0.0,0.0,0.0,0.0,-0.5033227199475099,0.6007358423144532,9.587727013382265,0.0,0.0,0.0,0.0,0.0,0.0,0.0,0.0,0.0
1753722553798848207,142767,1753722553798848207,imu_link,0.0,0.0,0.0,0.0,-1.0,0.0,0.0,0.0,0.0,0.0,0.0,0.0,0.0,-0.028048727534826616,0.004064080636690235,-0.002913075669841788,0.0,0.0,0.0,0.0,0.0,0.0,0.0,0.0,0.0,-0.3519138857995606,0.5570827225750734,9.35943006885956,0.0,0.0,0.0,0.0,0.0,0.0,0.0,0.0,0.0
1753722553803817601,142768,1753722553803817601,imu_link,0.0,0.0,0.0,0.0,-1.0,0.0,0.0,0.0,0.0,0.0,0.0,0.0,0.0,-0.029761840508738445,-0.0009235752722781624,-0.0025993394667967276,0.0,0.0,0.0,0.0,0.0,0.0,0.0,0.0,0.0,-0.16687292281585697,0.40165384427459727,9.110975023749086,0.0,0.0,0.0,0.0,0.0,0.0,0.0,0.0,0.0
1753722553809699627,142769,1753722553809699627,imu_link,0.0,0.0,0.0,0.0,-1.0,0.0,0.0,0.0,0.0,0.0,0.0,0.0,0.0,-0.0112717454103376,-0.003297970659036396,-0.0018871463420224049,0.0,0.0,0.0,0.0,0.0,0.0,0.0,0.0,0.0,-0.006272628784484865,0.19885095757965093,9.117621507122804,0.0,0.0,0.0,0.0,0.0,0.0,0.0,0.0,0.0
1753722553813848127,142770,1753722553813848127,imu_link,0.0,0.0,0.0,0.0,-1.0,0.0,0.0,0.0,0.0,0.0,0.0,0.0,0.0,0.007379232702668779,-0.002087601469798829,-0.0011246195229793288,0.0,0.0,0.0,0.0,0.0,0.0,0.0,0.0,0.0,0.03191811986724854,0.16477997157958987,9.392651412545474,0.0,0.0,0.0,0.0,0.0,0.0,0.0,0.0,0.0
1753722553818025018,142771,1753722553818025018,imu_link,0.0,0.0,0.0,0.0,-1.0,0.0,0.0,0.0,0.0,0.0,0.0,0.0,0.0,0.01134107226629651,0.001619882253527066,-0.001045390559778514,0.0,0.0,0.0,0.0,0.0,0.0,0.0,0.0,0.0,-0.011352346591796878,0.2817677874447633,9.814166356691896,0.0,0.0,0.0,0.0,0.0,0.0,0.0,0.0,0.0
1753722553823804847,142772,1753722553823804847,imu_link,0.0,0.0,0.0,0.0,-1.0,0.0,0.0,0.0,0.0,0.0,0.0,0.0,0.0,0.0017770973726628008,0.0071421591465222305,-0.0015278580246114672,0.0,0.0,0.0,0.0,0.0,0.0,0.0,0.0,0.0,-0.12389796069671632,0.3879311183291627,10.104988775395205,0.0,0.0,0.0,0.0,0.0,0.0,0.0,0.0,0.0
1753722553827911513,142773,1753722553827911513,imu_link,0.0,0.0,0.0,0.0,-1.0,0.0,0.0,0.0,0.0,0.0,0.0,0.0,0.0,-0.010147836062938783,0.010697080207782445,-0.0013435311456720005,0.0,0.0,0.0,0.0,0.0,0.0,0.0,0.0,0.0,-0.25348945265136724,0.3976001615887452,10.236695544516603,0.0,0.0,0.0,0.0,0.0,0.0,0.0,0.0,0.0
1753722553833929643,142774,1753722553833929643,imu_link,0.0,0.0,0.0,0.0,-1.0,0.0,0.0,0.0,0.0,0.0,0.0,0.0,0.0,-0.01298014540085149,0.012628931295580344,-0.000746382429852016,0.0,0.0,0.0,0.0,0.0,0.0,0.0,0.0,0.0,-0.3914113298623658,0.3723110474230958,10.297795810303958,0.0,0.0,0.0,0.0,0.0,0.0,0.0,0.0,0.0
1753722553837928743,142775,1753722553837928743,imu_link,0.0,0.0,0.0,0.0,-1.0,0.0,0.0,0.0,0.0,0.0,0.0,0.0,0.0,-0.010830355146695596,0.013618250265206655,-0.00040557885297700573,0.0,0.0,0.0,0.0,0.0,0.0,0.0,0.0,0.0,-0.5082312523361208,0.4154308587426759,10.3036090516449,0.0,0.0,0.0,0.0,0.0,0.0,0.0,0.0,0.0
1753722553842813478,142776,1753722553842813478,imu_link,0.0,0.0,0.0,0.0,-1.0,0.0,0.0,0.0,0.0,0.0,0.0,0.0,0.0,-0.0101151437757041,0.0132547089644897,-0.0007370210244725462,0.0,0.0,0.0,0.0,0.0,0.0,0.0,0.0,0.0,-0.6243263901123048,0.49442760237457284,10.236395970033877,0.0,0.0,0.0,0.0,0.0,0.0,0.0,0.0,0.0
1753722553847937070,142777,1753722553847937070,imu_link,0.0,0.0,0.0,0.0,-1.0,0.0,0.0,0.0,0.0,0.0,0.0,0.0,0.0,-0.013999989815174219,0.012041361879920215,-0.0015032036337198462,0.0,0.0,0.0,0.0,0.0,0.0,0.0,0.0,0.0,-0.654684867163086,0.5453980607928468,9.944484129720156,0.0,0.0,0.0,0.0,0.0,0.0,0.0,0.0,0.0
1753722553852767336,142778,1753722553852767336,imu_link,0.0,0.0,0.0,0.0,-1.0,0.0,0.0,0.0,0.0,0.0,0.0,0.0,0.0,-0.018407912450399265,0.009163912006671245,-0.001890414763728168,0.0,0.0,0.0,0.0,0.0,0.0,0.0,0.0,0.0,-0.6276712095416261,0.49509773941925056,9.665259164003604,0.0,0.0,0.0,0.0,0.0,0.0,0.0,0.0,0.0
1753722553857877245,142779,1753722553857877245,imu_link,0.0,0.0,0.0,0.0,-1.0,0.0,0.0,0.0,0.0,0.0,0.0,0.0,0.0,-0.0166402652550635,0.003960802545876644,-0.0019108484520219764,0.0,0.0,0.0,0.0,0.0,0.0,0.0,0.0,0.0,-0.5336492942611695,0.4152141834924317,9.46517794590088,0.0,0.0,0.0,0.0,0.0,0.0,0.0,0.0,0.0
1753722553862927209,142780,1753722553862927209,imu_link,0.0,0.0,0.0,0.0,-1.0,0.0,0.0,0.0,0.0,0.0,0.0,0.0,0.0,-0.009611205604826251,-0.0009118291295800432,-0.0018780794981053063,0.0,0.0,0.0,0.0,0.0,0.0,0.0,0.0,0.0,-0.42353864309967054,0.3813231217471314,9.467812046567385,0.0,0.0,0.0,0.0,0.0,0.0,0.0,0.0,0.0
1753722553867935289,142781,1753722553867935289,imu_link,0.0,0.0,0.0,0.0,-1.0,0.0,0.0,0.0,0.0,0.0,0.0,0.0,0.0,-0.003570540888942943,-0.004440368782059666,-0.0025130047127022723,0.0,0.0,0.0,0.0,0.0,0.0,0.0,0.0,0.0,-0.31064616902923586,0.3712132461068727,9.665314110931703,0.0,0.0,0.0,0.0,0.0,0.0,0.0,0.0,0.0
1753722553872845662,142782,1753722553872845662,imu_link,0.0,0.0,0.0,0.0,-1.0,0.0,0.0,0.0,0.0,0.0,0.0,0.0,0.0,-0.005499349519992515,-0.005760149396669788,-0.0029212184784865166,0.0,0.0,0.0,0.0,0.0,0.0,0.0,0.0,0.0,-0.22454606849182132,0.32471904696746834,9.792950976651003,0.0,0.0,0.0,0.0,0.0,0.0,0.0,0.0,0.0
1753722553877941568,142783,1753722553877941568,imu_link,0.0,0.0,0.0,0.0,-1.0,0.0,0.0,0.0,0.0,0.0,0.0,0.0,0.0,-0.00966288298357404,-0.004824380086867161,-0.002805605122050064,0.0,0.0,0.0,0.0,0.0,0.0,0.0,0.0,0.0,-0.13251116102416996,0.3015961466088868,9.88272312412964,0.0,0.0,0.0,0.0,0.0,0.0,0.0,0.0,0.0
1753722553883050482,142784,1753722553883050482,imu_link,0.0,0.0,0.0,0.0,-1.0,0.0,0.0,0.0,0.0,0.0,0.0,0.0,0.0,-0.011653577767341253,-0.004506358619807878,-0.002265456066743179,0.0,0.0,0.0,0.0,0.0,0.0,0.0,0.0,0.0,-0.10474961465911867,0.28345785439666754,9.965950422095034,0.0,0.0,0.0,0.0,0.0,0.0,0.0,0.0,0.0
1753722553887899208,142785,1753722553887899208,imu_link,0.0,0.0,0.0,0.0,-1.0,0.0,0.0,0.0,0.0,0.0,0.0,0.0,0.0,-0.01013272869149881,-0.0036372530075372425,-0.0015766341747093255,0.0,0.0,0.0,0.0,0.0,0.0,0.0,0.0,0.0,-0.16065482197418218,0.2821598379666138,10.006930834666141,0.0,0.0,0.0,0.0,0.0,0.0,0.0,0.0,0.0
1753722553892794333,142786,1753722553892794333,imu_link,0.0,0.0,0.0,0.0,-1.0,0.0,0.0,0.0,0.0,0.0,0.0,0.0,0.0,-0.006299592311484687,-0.0014219651964332658,-0.0016464573465568885,0.0,0.0,0.0,0.0,0.0,0.0,0.0,0.0,0.0,-0.24994256260192876,0.3493668143634034,10.012911969398502,0.0,0.0,0.0,0.0,0.0,0.0,0.0,0.0,0.0
1753722553897912850,142787,1753722553897912850,imu_link,0.0,0.0,0.0,0.0,-1.0,0.0,0.0,0.0,0.0,0.0,0.0,0.0,0.0,-0.007323705849467535,0.00050897396135784,-0.0016439636618480473,0.0,0.0,0.0,0.0,0.0,0.0,0.0,0.0,0.0,-0.3371311270690919,0.4506422029934693,9.950038438151552,0.0,0.0,0.0,0.0,0.0,0.0,0.0,0.0,0.0
1753722553903802089,142788,1753722553903802089,imu_link,0.0,0.0,0.0,0.0,-1.0,0.0,0.0,0.0,0.0,0.0,0.0,0.0,0.0,-0.007836513144924728,0.001789537550587329,-0.001485069945885649,0.0,0.0,0.0,0.0,0.0,0.0,0.0,0.0,0.0,-0.4267984683700562,0.5770074483560181,9.827364213778383,0.0,0.0,0.0,0.0,0.0,0.0,0.0,0.0,0.0
1753722553909515695,142789,1753722553909515695,imu_link,0.0,0.0,0.0,0.0,-1.0,0.0,0.0,0.0,0.0,0.0,0.0,0.0,0.0,-0.0038787167399996804,0.0011086567127719226,-0.0012118662070805778,0.0,0.0,0.0,0.0,0.0,0.0,0.0,0.0,0.0,-0.41374510135375986,0.6451165599383546,9.729548446547243,0.0,0.0,0.0,0.0,0.0,0.0,0.0,0.0,0.0
1753722553913809951,142790,1753722553913809951,imu_link,0.0,0.0,0.0,0.0,-1.0,0.0,0.0,0.0,0.0,0.0,0.0,0.0,0.0,-0.00356870492366378,-0.0016583205068222515,-0.0008448587653201032,0.0,0.0,0.0,0.0,0.0,0.0,0.0,0.0,0.0,-0.3958668792968751,0.6038606944662477,9.58630389991547,0.0,0.0,0.0,0.0,0.0,0.0,0.0,0.0,0.0
1753722553918716549,142791,1753722553918716549,imu_link,0.0,0.0,0.0,0.0,-1.0,0.0,0.0,0.0,0.0,0.0,0.0,0.0,0.0,-0.006780502232146746,-0.004048836072240392,-0.0009772984409084477,0.0,0.0,0.0,0.0,0.0,0.0,0.0,0.0,0.0,-0.3478099248788453,0.47599907306610123,9.445115493669435,0.0,0.0,0.0,0.0,0.0,0.0,0.0,0.0,0.0
1753722553923730015,142792,1753722553923730015,imu_link,0.0,0.0,0.0,0.0,-1.0,0.0,0.0,0.0,0.0,0.0,0.0,0.0,0.0,-0.00625569458341432,-0.006038744013745106,-0.0010652230198820029,0.0,0.0,0.0,0.0,0.0,0.0,0.0,0.0,0.0,-0.27180042665832527,0.3264993753219605,9.47651886017975,0.0,0.0,0.0,0.0,0.0,0.0,0.0,0.0,0.0
1753722553929112168,142793,1753722553929112168,imu_link,0.0,0.0,0.0,0.0,-1.0,0.0,0.0,0.0,0.0,0.0,0.0,0.0,0.0,-0.002013178297032043,-0.008291566218314526,-0.0009514456287247134,0.0,0.0,0.0,0.0,0.0,0.0,0.0,0.0,0.0,-0.23489285038635258,0.21798416029174808,9.567465363572696,0.0,0.0,0.0,0.0,0.0,0.0,0.0,0.0,0.0
1753722553933777186,142794,1753722553933777186,imu_link,0.0,0.0,0.0,0.0,-1.0,0.0,0.0,0.0,0.0,0.0,0.0,0.0,0.0,0.0027164498410761906,-0.010080914119741151,-0.0010409721378429452,0.0,0.0,0.0,0.0,0.0,0.0,0.0,0.0,0.0,-0.16286233575988773,0.21956457280761724,9.70826979972748,0.0,0.0,0.0,0.0,0.0,0.0,0.0,0.0,0.0
1753722553938773653,142795,1753722553938773653,imu_link,0.0,0.0,0.0,0.0,-1.0,0.0,0.0,0.0,0.0,0.0,0.0,0.0,0.0,-0.0012136214705892282,-0.011630234780220463,-0.0010541386317020876,0.0,0.0,0.0,0.0,0.0,0.0,0.0,0.0,0.0,-0.09171151067840579,0.29146119170623785,9.856721076564638,0.0,0.0,0.0,0.0,0.0,0.0,0.0,0.0,0.0
1753722553943737357,142796,1753722553943737357,imu_link,0.0,0.0,0.0,0.0,-1.0,0.0,0.0,0.0,0.0,0.0,0.0,0.0,0.0,-0.008834689133864803,-0.011980795201150455,-0.0009416968548467829,0.0,0.0,0.0,0.0,0.0,0.0,0.0,0.0,0.0,-0.06846153806671144,0.30561930322357184,9.960065175139162,0.0,0.0,0.0,0.0,0.0,0.0,0.0,0.0,0.0
1753722553948764771,142797,1753722553948764771,imu_link,0.0,0.0,0.0,0.0,-1.0,0.0,0.0,0.0,0.0,0.0,0.0,0.0,0.0,-0.004153962233598723,-0.010539058070941585,-0.00014961301235344104,0.0,0.0,0.0,0.0,0.0,0.0,0.0,0.0,0.0,-0.07645715407592775,0.3365996143005372,10.051170533812257,0.0,0.0,0.0,0.0,0.0,0.0,0.0,0.0,0.0
1753722553953774531,142798,1753722553953774531,imu_link,0.0,0.0,0.0,0.0,-1.0,0.0,0.0,0.0,0.0,0.0,0.0,0.0,0.0,0.0021626137654903563,-0.00895290512240029,0.0010385470496390395,0.0,0.0,0.0,0.0,0.0,0.0,0.0,0.0,0.0,-0.17513740767150882,0.43077721254394535,10.070696026466372,0.0,0.0,0.0,0.0,0.0,0.0,0.0,0.0,0.0
1753722553959021138,142799,1753722553959021138,imu_link,0.0,0.0,0.0,0.0,-1.0,0.0,0.0,0.0,0.0,0.0,0.0,0.0,0.0,0.002388893459830835,-0.00675164731409994,0.0017053978846508179,0.0,0.0,0.0,0.0,0.0,0.0,0.0,0.0,0.0,-0.28197722023498545,0.5463340140768433,9.978797349073183,0.0,0.0,0.0,0.0,0.0,0.0,0.0,0.0,0.0
1753722553963775493,142800,1753722553963775493,imu_link,0.0,0.0,0.0,0.0,-1.0,0.0,0.0,0.0,0.0,0.0,0.0,0.0,0.0,-0.0018465372111004285,-0.0041229324028366,0.002051434971343575,0.0,0.0,0.0,0.0,0.0,0.0,0.0,0.0,0.0,-0.3643691213861085,0.6183808691296389,9.78078573874054,0.0,0.0,0.0,0.0,0.0,0.0,0.0,0.0,0.0
1753722553968850014,142801,1753722553968850014,imu_link,0.0,0.0,0.0,0.0,-1.0,0.0,0.0,0.0,0.0,0.0,0.0,0.0,0.0,-0.008289927972373119,-0.003206733272383296,0.0026671531645585255,0.0,0.0,0.0,0.0,0.0,0.0,0.0,0.0,0.0,-0.4232971280072022,0.5906087284222413,9.545611449949037,0.0,0.0,0.0,0.0,0.0,0.0,0.0,0.0,0.0
1753722553973806476,142802,1753722553973806476,imu_link,0.0,0.0,0.0,0.0,-1.0,0.0,0.0,0.0,0.0,0.0,0.0,0.0,0.0,-0.007153388797889069,-0.003543695444981903,0.0031313497485474097,0.0,0.0,0.0,0.0,0.0,0.0,0.0,0.0,0.0,-0.4447126034518433,0.5314833198742677,9.37706091002991,0.0,0.0,0.0,0.0,0.0,0.0,0.0,0.0,0.0
1753722553977986068,142803,1753722553977986068,imu_link,0.0,0.0,0.0,0.0,-1.0,0.0,0.0,0.0,0.0,0.0,0.0,0.0,0.0,-0.0028624232035795102,-0.0035782600132924806,0.0029765314719959013,0.0,0.0,0.0,0.0,0.0,0.0,0.0,0.0,0.0,-0.4743531192797853,0.47782219777526863,9.340077796695558,0.0,0.0,0.0,0.0,0.0,0.0,0.0,0.0,0.0
1753722553983890069,142804,1753722553983890069,imu_link,0.0,0.0,0.0,0.0,-1.0,0.0,0.0,0.0,0.0,0.0,0.0,0.0,0.0,0.001651000856236752,-0.0025871413941837376,0.0023433130998452784,0.0,0.0,0.0,0.0,0.0,0.0,0.0,0.0,0.0,-0.4164397753222657,0.4162127451498414,9.350437028438723,0.0,0.0,0.0,0.0,0.0,0.0,0.0,0.0,0.0
1753722553987878074,142805,1753722553987878074,imu_link,0.0,0.0,0.0,0.0,-1.0,0.0,0.0,0.0,0.0,0.0,0.0,0.0,0.0,0.006647299924827057,-0.0009507152777015738,0.0016412722578014497,0.0,0.0,0.0,0.0,0.0,0.0,0.0,0.0,0.0,-0.24638890893280033,0.36940765892486577,9.41637076839264,0.0,0.0,0.0,0.0,0.0,0.0,0.0,0.0,0.0
1753722553993905240,142806,1753722553993905240,imu_link,0.0,0.0,0.0,0.0,-1.0,0.0,0.0,0.0,0.0,0.0,0.0,0.0,0.0,0.0063513221463833095,0.0002056281112662861,0.0014708704693639444,0.0,0.0,0.0,0.0,0.0,0.0,0.0,0.0,0.0,-0.21446600066223148,0.30502159077911384,9.550569183181764,0.0,0.0,0.0,0.0,0.0,0.0,0.0,0.0,0.0
1753722553997966668,142807,1753722553997966668,imu_link,0.0,0.0,0.0,0.0,-1.0,0.0,0.0,0.0,0.0,0.0,0.0,0.0,0.0,0.00562526445743491,0.0022215785141154396,0.0012648913053959284,0.0,0.0,0.0,0.0,0.0,0.0,0.0,0.0,0.0,-0.23640419018432623,0.23935761749725348,9.734478586605837,0.0,0.0,0.0,0.0,0.0,0.0,0.0,0.0,0.0
1753722554002731639,142808,1753722554002731639,imu_link,0.0,0.0,0.0,0.0,-1.0,0.0,0.0,0.0,0.0,0.0,0.0,0.0,0.0,0.0058087802835807235,0.005457307932643938,0.0006566339908648745,0.0,0.0,0.0,0.0,0.0,0.0,0.0,0.0,0.0,-0.2551420503472901,0.29310343447998055,9.874933648883363,0.0,0.0,0.0,0.0,0.0,0.0,0.0,0.0,0.0
1753722554011411531,142809,1753722554011411531,imu_link,0.0,0.0,0.0,0.0,-1.0,0.0,0.0,0.0,0.0,0.0,0.0,0.0,0.0,0.0012685632359542547,0.007397899022188359,0.0006276378447196717,0.0,0.0,0.0,0.0,0.0,0.0,0.0,0.0,0.0,-0.2919637944897462,0.35503454809844975,9.920552827171022,0.0,0.0,0.0,0.0,0.0,0.0,0.0,0.0,0.0
1753722554013021722,142810,1753722554013021722,imu_link,0.0,0.0,0.0,0.0,-1.0,0.0,0.0,0.0,0.0,0.0,0.0,0.0,0.0,0.00013375511444770115,0.0082011277791895,0.0007893319121188597,0.0,0.0,0.0,0.0,0.0,0.0,0.0,0.0,0.0,-0.2564451544558716,0.41313039007751473,9.900732608292543,0.0,0.0,0.0,0.0,0.0,0.0,0.0,0.0,0.0
1753722554018044376,142811,1753722554018044376,imu_link,0.0,0.0,0.0,0.0,-1.0,0.0,0.0,0.0,0.0,0.0,0.0,0.0,0.0,0.0009614808938879642,0.008503097664093814,0.0013425264086291179,0.0,0.0,0.0,0.0,0.0,0.0,0.0,0.0,0.0,-0.30389116846527103,0.542920181784668,9.945445700961915,0.0,0.0,0.0,0.0,0.0,0.0,0.0,0.0,0.0
1753722554023166251,142812,1753722554023166251,imu_link,0.0,0.0,0.0,0.0,-1.0,0.0,0.0,0.0,0.0,0.0,0.0,0.0,0.0,-0.0014703176622359326,0.009088839184651833,0.002240172202041559,0.0,0.0,0.0,0.0,0.0,0.0,0.0,0.0,0.0,-0.2760862271951295,0.5762283751358033,9.933690410230716,0.0,0.0,0.0,0.0,0.0,0.0,0.0,0.0,0.0
1753722554028069671,142813,1753722554028069671,imu_link,0.0,0.0,0.0,0.0,-1.0,0.0,0.0,0.0,0.0,0.0,0.0,0.0,0.0,0.000512718523509628,0.009770954759556083,0.0026614556195603306,0.0,0.0,0.0,0.0,0.0,0.0,0.0,0.0,0.0,-0.2041478893325806,0.535532872562256,9.79149099247864,0.0,0.0,0.0,0.0,0.0,0.0,0.0,0.0,0.0
1753722554033154114,142814,1753722554033154114,imu_link,0.0,0.0,0.0,0.0,-1.0,0.0,0.0,0.0,0.0,0.0,0.0,0.0,0.0,0.0032218527490888446,0.010634274054880958,0.0033072796082650327,0.0,0.0,0.0,0.0,0.0,0.0,0.0,0.0,0.0,-0.13174316098663333,0.4407952705505372,9.683385485207522,0.0,0.0,0.0,0.0,0.0,0.0,0.0,0.0,0.0
1753722554039958552,142815,1753722554039958552,imu_link,0.0,0.0,0.0,0.0,-1.0,0.0,0.0,0.0,0.0,0.0,0.0,0.0,0.0,0.0018581986169395098,0.012442405293394408,0.003797139355276947,0.0,0.0,0.0,0.0,0.0,0.0,0.0,0.0,0.0,-0.12745951523132326,0.24537717916625984,9.619992232635195,0.0,0.0,0.0,0.0,0.0,0.0,0.0,0.0,0.0
1753722554043097640,142816,1753722554043097640,imu_link,0.0,0.0,0.0,0.0,-1.0,0.0,0.0,0.0,0.0,0.0,0.0,0.0,0.0,0.0016916826187521896,0.015808556843248434,0.00425225295499463,0.0,0.0,0.0,0.0,0.0,0.0,0.0,0.0,0.0,-0.14705892886169436,0.19117053821899418,9.67890838795807,0.0,0.0,0.0,0.0,0.0,0.0,0.0,0.0,0.0
1753722554047973672,142817,1753722554047973672,imu_link,0.0,0.0,0.0,0.0,-1.0,0.0,0.0,0.0,0.0,0.0,0.0,0.0,0.0,-0.0008913510553124528,0.018556250374778607,0.004850979390428137,0.0,0.0,0.0,0.0,0.0,0.0,0.0,0.0,0.0,-0.1842690723684693,0.16742741992034915,9.795039857744447,0.0,0.0,0.0,0.0,0.0,0.0,0.0,0.0,0.0
1753722554052889138,142818,1753722554052889138,imu_link,0.0,0.0,0.0,0.0,-1.0,0.0,0.0,0.0,0.0,0.0,0.0,0.0,0.0,-0.0023696501226520886,0.0203887253023672,0.0050113701242335456,0.0,0.0,0.0,0.0,0.0,0.0,0.0,0.0,0.0,-0.23401112576995853,0.1726011101428223,9.808923653606568,0.0,0.0,0.0,0.0,0.0,0.0,0.0,0.0,0.0
1753722554059243125,142819,1753722554059243125,imu_link,0.0,0.0,0.0,0.0,-1.0,0.0,0.0,0.0,0.0,0.0,0.0,0.0,0.0,0.0003505200700447359,0.022310916388234736,0.004922775720564735,0.0,0.0,0.0,0.0,0.0,0.0,0.0,0.0,0.0,-0.28932101484222417,0.26602686920989993,9.838075333310549,0.0,0.0,0.0,0.0,0.0,0.0,0.0,0.0,0.0
1753722554064005066,142820,1753722554064005066,imu_link,0.0,0.0,0.0,0.0,-1.0,0.0,0.0,0.0,0.0,0.0,0.0,0.0,0.0,-0.00320268204350356,0.02379487264968731,0.004707096203781096,0.0,0.0,0.0,0.0,0.0,0.0,0.0,0.0,0.0,-0.3392112094714356,0.3464446912371827,9.796695567902528,0.0,0.0,0.0,0.0,0.0,0.0,0.0,0.0,0.0
1753722554068932921,142821,1753722554068932921,imu_link,0.0,0.0,0.0,0.0,-1.0,0.0,0.0,0.0,0.0,0.0,0.0,0.0,0.0,-0.003936781663883547,0.025276690314221296,0.004400990353138009,0.0,0.0,0.0,0.0,0.0,0.0,0.0,0.0,0.0,-0.26215933570312505,0.3814944867309571,9.614075142797244,0.0,0.0,0.0,0.0,0.0,0.0,0.0,0.0,0.0
1753722554074171870,142822,1753722554074171870,imu_link,0.0,0.0,0.0,0.0,-1.0,0.0,0.0,0.0,0.0,0.0,0.0,0.0,0.0,0.0004966992220628629,0.025906486931302184,0.004374286137275366,0.0,0.0,0.0,0.0,0.0,0.0,0.0,0.0,0.0,-0.20622821115509038,0.43787943220367437,9.431465312034303,0.0,0.0,0.0,0.0,0.0,0.0,0.0,0.0,0.0
1753722554079168364,142823,1753722554079168364,imu_link,0.0,0.0,0.0,0.0,-1.0,0.0,0.0,0.0,0.0,0.0,0.0,0.0,0.0,0.0054201972234736865,0.026653414098105156,0.004292244717372185,0.0,0.0,0.0,0.0,0.0,0.0,0.0,0.0,0.0,-0.1313877417501831,0.3814819171722413,9.315478631593324,0.0,0.0,0.0,0.0,0.0,0.0,0.0,0.0,0.0
1753722554083954702,142824,1753722554083954702,imu_link,0.0,0.0,0.0,0.0,-1.0,0.0,0.0,0.0,0.0,0.0,0.0,0.0,0.0,0.010435231208088508,0.02870165327933643,0.004071138006521568,0.0,0.0,0.0,0.0,0.0,0.0,0.0,0.0,0.0,-0.10964426067810061,0.31314224397003176,9.366633503394473,0.0,0.0,0.0,0.0,0.0,0.0,0.0,0.0,0.0
1753722554089119217,142825,1753722554089119217,imu_link,0.0,0.0,0.0,0.0,-1.0,0.0,0.0,0.0,0.0,0.0,0.0,0.0,0.0,0.010683312485732984,0.0299010510628728,0.004012257994755523,0.0,0.0,0.0,0.0,0.0,0.0,0.0,0.0,0.0,-0.09918321550933841,0.26339570144042973,9.59005190290436,0.0,0.0,0.0,0.0,0.0,0.0,0.0,0.0,0.0
1753722554094059076,142826,1753722554094059076,imu_link,0.0,0.0,0.0,0.0,-1.0,0.0,0.0,0.0,0.0,0.0,0.0,0.0,0.0,0.00863372558493415,0.0299354138767571,0.004528075466252838,0.0,0.0,0.0,0.0,0.0,0.0,0.0,0.0,0.0,-0.0801293207272339,0.17233870564086917,9.93957176660889,0.0,0.0,0.0,0.0,0.0,0.0,0.0,0.0,0.0
1753722554099138974,142827,1753722554099138974,imu_link,0.0,0.0,0.0,0.0,-1.0,0.0,0.0,0.0,0.0,0.0,0.0,0.0,0.0,0.008482958537262377,0.029194196360217896,0.005262687542875581,0.0,0.0,0.0,0.0,0.0,0.0,0.0,0.0,0.0,-0.16909282659515384,0.15396147210296635,10.253481232500917,0.0,0.0,0.0,0.0,0.0,0.0,0.0,0.0,0.0
1753722554104102500,142828,1753722554104102500,imu_link,0.0,0.0,0.0,0.0,-1.0,0.0,0.0,0.0,0.0,0.0,0.0,0.0,0.0,0.00709649001458911,0.02828972319702008,0.006010671902872274,0.0,0.0,0.0,0.0,0.0,0.0,0.0,0.0,0.0,-0.25433556351806647,0.17218128688171389,10.465653827392886,0.0,0.0,0.0,0.0,0.0,0.0,0.0,0.0,0.0
1753722554109785282,142829,1753722554109785282,imu_link,0.0,0.0,0.0,0.0,-1.0,0.0,0.0,0.0,0.0,0.0,0.0,0.0,0.0,0.0029142418104256963,0.02810826930111086,0.006184059656818747,0.0,0.0,0.0,0.0,0.0,0.0,0.0,0.0,0.0,-0.2681943998278809,0.2350007091711426,10.522583812873537,0.0,0.0,0.0,0.0,0.0,0.0,0.0,0.0,0.0
1753722554113982212,142830,1753722554113982212,imu_link,0.0,0.0,0.0,0.0,-1.0,0.0,0.0,0.0,0.0,0.0,0.0,0.0,0.0,-0.005738295357214956,0.02687803940615013,0.006332833370758857,0.0,0.0,0.0,0.0,0.0,0.0,0.0,0.0,0.0,-0.28973269781768807,0.3016806020724488,10.29107857827118,0.0,0.0,0.0,0.0,0.0,0.0,0.0,0.0,0.0
1753722554119136987,142831,1753722554119136987,imu_link,0.0,0.0,0.0,0.0,-1.0,0.0,0.0,0.0,0.0,0.0,0.0,0.0,0.0,-0.010248112047889302,0.025641228281804082,0.0066344279924302856,0.0,0.0,0.0,0.0,0.0,0.0,0.0,0.0,0.0,-0.22577088220611577,0.3530653770880128,10.025992031763307,0.0,0.0,0.0,0.0,0.0,0.0,0.0,0.0,0.0
1753722554123202923,142832,1753722554123202923,imu_link,0.0,0.0,0.0,0.0,-1.0,0.0,0.0,0.0,0.0,0.0,0.0,0.0,0.0,-0.011222505225059293,0.025149601166017943,0.0066863515115781385,0.0,0.0,0.0,0.0,0.0,0.0,0.0,0.0,0.0,-0.19433106397552494,0.34271135273345954,9.844723432770387,0.0,0.0,0.0,0.0,0.0,0.0,0.0,0.0,0.0
1753722554128886404,142833,1753722554128886404,imu_link,0.0,0.0,0.0,0.0,-1.0,0.0,0.0,0.0,0.0,0.0,0.0,0.0,0.0,-0.0074968353577483686,0.025143673620973788,0.006607037811518285,0.0,0.0,0.0,0.0,0.0,0.0,0.0,0.0,0.0,-0.21679891075988772,0.33426502826171883,9.752972298054505,0.0,0.0,0.0,0.0,0.0,0.0,0.0,0.0,0.0
1753722554133800966,142834,1753722554133800966,imu_link,0.0,0.0,0.0,0.0,-1.0,0.0,0.0,0.0,0.0,0.0,0.0,0.0,0.0,0.0015540175035231494,0.025921553951856895,0.0061712442156613345,0.0,0.0,0.0,0.0,0.0,0.0,0.0,0.0,0.0,-0.17644679655944828,0.30662857893341067,9.881017554721987,0.0,0.0,0.0,0.0,0.0,0.0,0.0,0.0,0.0
1753722554137890641,142835,1753722554137890641,imu_link,0.0,0.0,0.0,0.0,-1.0,0.0,0.0,0.0,0.0,0.0,0.0,0.0,0.0,0.0037757856667992944,0.025799645857320457,0.005701454998975923,0.0,0.0,0.0,0.0,0.0,0.0,0.0,0.0,0.0,-0.19915502119049075,0.23276638032684333,10.111399789035646,0.0,0.0,0.0,0.0,0.0,0.0,0.0,0.0,0.0
1753722554143760226,142836,1753722554143760226,imu_link,0.0,0.0,0.0,0.0,-1.0,0.0,0.0,0.0,0.0,0.0,0.0,0.0,0.0,0.0020467058475915323,0.02542477806311205,0.005643289197878915,0.0,0.0,0.0,0.0,0.0,0.0,0.0,0.0,0.0,-0.20476295973907477,0.17685363127655035,10.371098843112796,0.0,0.0,0.0,0.0,0.0,0.0,0.0,0.0,0.0
1753722554147867423,142837,1753722554147867423,imu_link,0.0,0.0,0.0,0.0,-1.0,0.0,0.0,0.0,0.0,0.0,0.0,0.0,0.0,-0.004153264163283788,0.026103072409182523,0.0054003768686357746,0.0,0.0,0.0,0.0,0.0,0.0,0.0,0.0,0.0,-0.24346355363433844,0.127983905249939,10.621908884831239,0.0,0.0,0.0,0.0,0.0,0.0,0.0,0.0,0.0
1753722554152809166,142838,1753722554152809166,imu_link,0.0,0.0,0.0,0.0,-1.0,0.0,0.0,0.0,0.0,0.0,0.0,0.0,0.0,-0.01135934314714058,0.026906184148616417,0.005391144586089125,0.0,0.0,0.0,0.0,0.0,0.0,0.0,0.0,0.0,-0.3328393410281373,0.130857126807251,10.655550291198427,0.0,0.0,0.0,0.0,0.0,0.0,0.0,0.0,0.0
1753722554157989408,142839,1753722554157989408,imu_link,0.0,0.0,0.0,0.0,-1.0,0.0,0.0,0.0,0.0,0.0,0.0,0.0,0.0,-0.01209843013693825,0.02824259336304068,0.005078820664028036,0.0,0.0,0.0,0.0,0.0,0.0,0.0,0.0,0.0,-0.3438846911120606,0.21462306029113773,10.603792260144045,0.0,0.0,0.0,0.0,0.0,0.0,0.0,0.0,0.0
1753722554162761082,142840,1753722554162761082,imu_link,0.0,0.0,0.0,0.0,-1.0,0.0,0.0,0.0,0.0,0.0,0.0,0.0,0.0,-0.015075449854645753,0.028469284636410772,0.004864101498313497,0.0,0.0,0.0,0.0,0.0,0.0,0.0,0.0,0.0,-0.3620916969119264,0.33971249544403087,10.474846783652346,0.0,0.0,0.0,0.0,0.0,0.0,0.0,0.0,0.0
1753722554168155323,142841,1753722554168155323,imu_link,0.0,0.0,0.0,0.0,-1.0,0.0,0.0,0.0,0.0,0.0,0.0,0.0,0.0,-0.021659265731699018,0.026997409430003942,0.005314025974187216,0.0,0.0,0.0,0.0,0.0,0.0,0.0,0.0,0.0,-0.41456296064086917,0.4446219230639649,10.319858438457338,0.0,0.0,0.0,0.0,0.0,0.0,0.0,0.0,0.0
1753722554173072424,142842,1753722554173072424,imu_link,0.0,0.0,0.0,0.0,-1.0,0.0,0.0,0.0,0.0,0.0,0.0,0.0,0.0,-0.02406293972079925,0.026112324867171802,0.005495443554299701,0.0,0.0,0.0,0.0,0.0,0.0,0.0,0.0,0.0,-0.44477371544921884,0.47198250050598156,10.239493109301455,0.0,0.0,0.0,0.0,0.0,0.0,0.0,0.0,0.0
1753722554178218785,142843,1753722554178218785,imu_link,0.0,0.0,0.0,0.0,-1.0,0.0,0.0,0.0,0.0,0.0,0.0,0.0,0.0,-0.022524477483542416,0.024816593380174452,0.005524673735579391,0.0,0.0,0.0,0.0,0.0,0.0,0.0,0.0,0.0,-0.49178278765563976,0.4548405553146363,10.122503378074953,0.0,0.0,0.0,0.0,0.0,0.0,0.0,0.0,0.0
1753722554183090525,142844,1753722554183090525,imu_link,0.0,0.0,0.0,0.0,-1.0,0.0,0.0,0.0,0.0,0.0,0.0,0.0,0.0,-0.018876071491320322,0.023729217724286725,0.005269438245978966,0.0,0.0,0.0,0.0,0.0,0.0,0.0,0.0,0.0,-0.49038397533569344,0.44232432744079603,10.013498728370363,0.0,0.0,0.0,0.0,0.0,0.0,0.0,0.0,0.0
1753722554188019357,142845,1753722554188019357,imu_link,0.0,0.0,0.0,0.0,-1.0,0.0,0.0,0.0,0.0,0.0,0.0,0.0,0.0,-0.019729424117986883,0.021520216581105683,0.004830166403812919,0.0,0.0,0.0,0.0,0.0,0.0,0.0,0.0,0.0,-0.4638578968823243,0.4230139538058473,9.858316871826174,0.0,0.0,0.0,0.0,0.0,0.0,0.0,0.0,0.0
1753722554192976549,142846,1753722554192976549,imu_link,0.0,0.0,0.0,0.0,-1.0,0.0,0.0,0.0,0.0,0.0,0.0,0.0,0.0,-0.02889584191463255,0.018456402109211803,0.004832777106089005,0.0,0.0,0.0,0.0,0.0,0.0,0.0,0.0,0.0,-0.4531525832891846,0.3413333699679566,9.68115947621399,0.0,0.0,0.0,0.0,0.0,0.0,0.0,0.0,0.0
1753722554198255642,142847,1753722554198255642,imu_link,0.0,0.0,0.0,0.0,-1.0,0.0,0.0,0.0,0.0,0.0,0.0,0.0,0.0,-0.03313483960382047,0.016443143110409248,0.004476281069937805,0.0,0.0,0.0,0.0,0.0,0.0,0.0,0.0,0.0,-0.38138938127807626,0.21692173330505374,9.525412109237672,0.0,0.0,0.0,0.0,0.0,0.0,0.0,0.0,0.0
1753722554203135978,142848,1753722554203135978,imu_link,0.0,0.0,0.0,0.0,-1.0,0.0,0.0,0.0,0.0,0.0,0.0,0.0,0.0,-0.029656734522822744,0.015416806238648776,0.003919410607780695,0.0,0.0,0.0,0.0,0.0,0.0,0.0,0.0,0.0,-0.34924189689178475,0.17194270468627934,9.476259388574832,0.0,0.0,0.0,0.0,0.0,0.0,0.0,0.0,0.0
1753722554209558175,142849,1753722554209558175,imu_link,0.0,0.0,0.0,0.0,-1.0,0.0,0.0,0.0,0.0,0.0,0.0,0.0,0.0,-0.02162621432158555,0.015695057873199414,0.0030901595648777425,0.0,0.0,0.0,0.0,0.0,0.0,0.0,0.0,0.0,-0.31071260812530527,0.20848522506011968,9.54962251584534,0.0,0.0,0.0,0.0,0.0,0.0,0.0,0.0,0.0
1753722554213955535,142850,1753722554213955535,imu_link,0.0,0.0,0.0,0.0,-1.0,0.0,0.0,0.0,0.0,0.0,0.0,0.0,0.0,-0.014928568597224166,0.016410809946053345,0.0023638920513260097,0.0,0.0,0.0,0.0,0.0,0.0,0.0,0.0,0.0,-0.3554457522335816,0.2692606575372315,9.648303607411501,0.0,0.0,0.0,0.0,0.0,0.0,0.0,0.0,0.0
1753722554218860187,142851,1753722554218860187,imu_link,0.0,0.0,0.0,0.0,-1.0,0.0,0.0,0.0,0.0,0.0,0.0,0.0,0.0,-0.011457884044025077,0.016706880531533182,0.0018498621240455506,0.0,0.0,0.0,0.0,0.0,0.0,0.0,0.0,0.0,-0.41813900009552013,0.29975853697967536,9.788456401729432,0.0,0.0,0.0,0.0,0.0,0.0,0.0,0.0,0.0
1753722554224005325,142852,1753722554224005325,imu_link,0.0,0.0,0.0,0.0,-1.0,0.0,0.0,0.0,0.0,0.0,0.0,0.0,0.0,-0.009513641199364957,0.017256770290540947,0.0012873707835722328,0.0,0.0,0.0,0.0,0.0,0.0,0.0,0.0,0.0,-0.5339321093322755,0.352639568322754,9.938533281638797,0.0,0.0,0.0,0.0,0.0,0.0,0.0,0.0,0.0
1753722554229147777,142853,1753722554229147777,imu_link,0.0,0.0,0.0,0.0,-1.0,0.0,0.0,0.0,0.0,0.0,0.0,0.0,0.0,-0.008685221384698285,0.01872399303987772,0.0006106783676464338,0.0,0.0,0.0,0.0,0.0,0.0,0.0,0.0,0.0,-0.5804765268515015,0.44344050425476084,10.118406599759219,0.0,0.0,0.0,0.0,0.0,0.0,0.0,0.0,0.0
1753722554234056715,142854,1753722554234056715,imu_link,0.0,0.0,0.0,0.0,-1.0,0.0,0.0,0.0,0.0,0.0,0.0,0.0,0.0,-0.01374581151876751,0.01991270590899821,0.00022962478272822885,0.0,0.0,0.0,0.0,0.0,0.0,0.0,0.0,0.0,-0.6000667826605226,0.47110239197570813,10.104012060827944,0.0,0.0,0.0,0.0,0.0,0.0,0.0,0.0,0.0
1753722554239102217,142855,1753722554239102217,imu_link,0.0,0.0,0.0,0.0,-1.0,0.0,0.0,0.0,0.0,0.0,0.0,0.0,0.0,-0.022283021821257028,0.020109477000950733,0.00017481617528454824,0.0,0.0,0.0,0.0,0.0,0.0,0.0,0.0,0.0,-0.585310060873108,0.4312689217099,9.874753126078188,0.0,0.0,0.0,0.0,0.0,0.0,0.0,0.0,0.0
1753722554244051067,142856,1753722554244051067,imu_link,0.0,0.0,0.0,0.0,-1.0,0.0,0.0,0.0,0.0,0.0,0.0,0.0,0.0,-0.02638898667684334,0.01903295976828548,2.224140795329217e-05,0.0,0.0,0.0,0.0,0.0,0.0,0.0,0.0,0.0,-0.5434943113427735,0.3334632101257325,9.60913590477234,0.0,0.0,0.0,0.0,0.0,0.0,0.0,0.0,0.0
1753722554249164331,142857,1753722554249164331,imu_link,0.0,0.0,0.0,0.0,-1.0,0.0,0.0,0.0,0.0,0.0,0.0,0.0,0.0,-0.024091980252918234,0.017055786566167665,-6.578404823340389e-05,0.0,0.0,0.0,0.0,0.0,0.0,0.0,0.0,0.0,-0.5820173153298951,0.3166910493807984,9.456734195195924,0.0,0.0,0.0,0.0,0.0,0.0,0.0,0.0,0.0
1753722554254076465,142858,1753722554254076465,imu_link,0.0,0.0,0.0,0.0,-1.0,0.0,0.0,0.0,0.0,0.0,0.0,0.0,0.0,-0.01746080857692813,0.015446145367318658,-0.00026720759725597985,0.0,0.0,0.0,0.0,0.0,0.0,0.0,0.0,0.0,-0.5588741241122438,0.3369704162826539,9.491326458752443,0.0,0.0,0.0,0.0,0.0,0.0,0.0,0.0,0.0
1753722554259122436,142859,1753722554259122436,imu_link,0.0,0.0,0.0,0.0,-1.0,0.0,0.0,0.0,0.0,0.0,0.0,0.0,0.0,-0.014952799303820596,0.013272003353910565,-0.0005065488731539344,0.0,0.0,0.0,0.0,0.0,0.0,0.0,0.0,0.0,-0.5221090028390504,0.30554107268432623,9.489442042480777,0.0,0.0,0.0,0.0,0.0,0.0,0.0,0.0,0.0
1753722554263973262,142860,1753722554263973262,imu_link,0.0,0.0,0.0,0.0,-1.0,0.0,0.0,0.0,0.0,0.0,0.0,0.0,0.0,-0.01477360909257426,0.01105051361174269,-0.0009985916030582158,0.0,0.0,0.0,0.0,0.0,0.0,0.0,0.0,0.0,-0.4582711470184327,0.2865627149645997,9.447532140970155,0.0,0.0,0.0,0.0,0.0,0.0,0.0,0.0,0.0
1753722554268861956,142861,1753722554268861956,imu_link,0.0,0.0,0.0,0.0,-1.0,0.0,0.0,0.0,0.0,0.0,0.0,0.0,0.0,-0.011525721952318027,0.009727129663079178,-0.0015853580361017455,0.0,0.0,0.0,0.0,0.0,0.0,0.0,0.0,0.0,-0.3518345180145265,0.30211520952880866,9.543692497318421,0.0,0.0,0.0,0.0,0.0,0.0,0.0,0.0,0.0
1753722554273826154,142862,1753722554273826154,imu_link,0.0,0.0,0.0,0.0,-1.0,0.0,0.0,0.0,0.0,0.0,0.0,0.0,0.0,-0.00937708169839194,0.009107041468990966,-0.0015790068067623982,0.0,0.0,0.0,0.0,0.0,0.0,0.0,0.0,0.0,-0.35899527590484626,0.3601521541470338,9.686879583110354,0.0,0.0,0.0,0.0,0.0,0.0,0.0,0.0,0.0
1753722554278810921,142863,1753722554278810921,imu_link,0.0,0.0,0.0,0.0,-1.0,0.0,0.0,0.0,0.0,0.0,0.0,0.0,0.0,-0.007174928100438901,0.010425381556997435,-0.00140925466757752,0.0,0.0,0.0,0.0,0.0,0.0,0.0,0.0,0.0,-0.43830440299835216,0.3823229403604127,9.870276986509403,0.0,0.0,0.0,0.0,0.0,0.0,0.0,0.0,0.0
1753722554283795458,142864,1753722554283795458,imu_link,0.0,0.0,0.0,0.0,-1.0,0.0,0.0,0.0,0.0,0.0,0.0,0.0,0.0,-0.008133653028863857,0.012954466097474356,-0.001508973810311502,0.0,0.0,0.0,0.0,0.0,0.0,0.0,0.0,0.0,-0.513368251418152,0.38955049647705087,9.962433878551638,0.0,0.0,0.0,0.0,0.0,0.0,0.0,0.0,0.0
1753722554287870796,142865,1753722554287870796,imu_link,0.0,0.0,0.0,0.0,-1.0,0.0,0.0,0.0,0.0,0.0,0.0,0.0,0.0,-0.014590750985858124,0.015113351441167029,-0.0017419719270471608,0.0,0.0,0.0,0.0,0.0,0.0,0.0,0.0,0.0,-0.5498354142947389,0.4119483128628541,9.931581717118533,0.0,0.0,0.0,0.0,0.0,0.0,0.0,0.0,0.0
1753722554293853885,142866,1753722554293853885,imu_link,0.0,0.0,0.0,0.0,-1.0,0.0,0.0,0.0,0.0,0.0,0.0,0.0,0.0,-0.01997499960565694,0.01611575620288197,-0.0016331657649534517,0.0,0.0,0.0,0.0,0.0,0.0,0.0,0.0,0.0,-0.5559837241580202,0.4009927453411866,9.897988434204715,0.0,0.0,0.0,0.0,0.0,0.0,0.0,0.0,0.0
1753722554298026779,142867,1753722554298026779,imu_link,0.0,0.0,0.0,0.0,-1.0,0.0,0.0,0.0,0.0,0.0,0.0,0.0,0.0,-0.021147648787356886,0.015995183722647514,-0.001200729362749829,0.0,0.0,0.0,0.0,0.0,0.0,0.0,0.0,0.0,-0.5837250395190431,0.32624301617919926,9.832123168418276,0.0,0.0,0.0,0.0,0.0,0.0,0.0,0.0,0.0
1753722554303846862,142868,1753722554303846862,imu_link,0.0,0.0,0.0,0.0,-1.0,0.0,0.0,0.0,0.0,0.0,0.0,0.0,0.0,-0.016463528377640747,0.017059749023099837,-0.00094155159165986,0.0,0.0,0.0,0.0,0.0,0.0,0.0,0.0,0.0,-0.6605731667260744,0.1676071047549439,9.779180606092531,0.0,0.0,0.0,0.0,0.0,0.0,0.0,0.0,0.0
1753722554308046360,142869,1753722554308046360,imu_link,0.0,0.0,0.0,0.0,-1.0,0.0,0.0,0.0,0.0,0.0,0.0,0.0,0.0,-0.008106178111092818,0.02049906479810065,-0.001337216232129384,0.0,0.0,0.0,0.0,0.0,0.0,0.0,0.0,0.0,-0.5912973008197023,0.08943235040802004,9.761935949649965,0.0,0.0,0.0,0.0,0.0,0.0,0.0,0.0,0.0
1753722554312858365,142870,1753722554312858365,imu_link,0.0,0.0,0.0,0.0,-1.0,0.0,0.0,0.0,0.0,0.0,0.0,0.0,0.0,-0.00832009832927928,0.024256301162947608,-0.0016436005038807401,0.0,0.0,0.0,0.0,0.0,0.0,0.0,0.0,0.0,-0.498536052423401,0.06301718334655763,9.814967576277468,0.0,0.0,0.0,0.0,0.0,0.0,0.0,0.0,0.0
1753722554317968572,142871,1753722554317968572,imu_link,0.0,0.0,0.0,0.0,-1.0,0.0,0.0,0.0,0.0,0.0,0.0,0.0,0.0,-0.016619020513976037,0.02752866918528886,-0.001684709985779895,0.0,0.0,0.0,0.0,0.0,0.0,0.0,0.0,0.0,-0.45933279588958753,0.057393502922058116,9.865013753144838,0.0,0.0,0.0,0.0,0.0,0.0,0.0,0.0,0.0
1753722554322795912,142872,1753722554322795912,imu_link,0.0,0.0,0.0,0.0,-1.0,0.0,0.0,0.0,0.0,0.0,0.0,0.0,0.0,-0.019589955318186886,0.030446990470213972,-0.0018738668656845447,0.0,0.0,0.0,0.0,0.0,0.0,0.0,0.0,0.0,-0.5034832511688234,0.06081894709228517,9.99492002276276,0.0,0.0,0.0,0.0,0.0,0.0,0.0,0.0,0.0
1753722554327901252,142873,1753722554327901252,imu_link,0.0,0.0,0.0,0.0,-1.0,0.0,0.0,0.0,0.0,0.0,0.0,0.0,0.0,-0.01875273094035728,0.03223396977467605,-0.0024128376751419447,0.0,0.0,0.0,0.0,0.0,0.0,0.0,0.0,0.0,-0.5193068292160036,0.12744975885955812,10.025906259488833,0.0,0.0,0.0,0.0,0.0,0.0,0.0,0.0,0.0
1753722554332718572,142874,1753722554332718572,imu_link,0.0,0.0,0.0,0.0,-1.0,0.0,0.0,0.0,0.0,0.0,0.0,0.0,0.0,-0.014581325019062244,0.031129836396141364,-0.003161717824791328,0.0,0.0,0.0,0.0,0.0,0.0,0.0,0.0,0.0,-0.5246821112182619,0.23331890221496587,10.001733980542603,0.0,0.0,0.0,0.0,0.0,0.0,0.0,0.0,0.0
1753722554337894577,142875,1753722554337894577,imu_link,0.0,0.0,0.0,0.0,-1.0,0.0,0.0,0.0,0.0,0.0,0.0,0.0,0.0,-0.012511486008953254,0.026769196928259686,-0.0034745905188919026,0.0,0.0,0.0,0.0,0.0,0.0,0.0,0.0,0.0,-0.49927490305572525,0.30242184690643314,9.983610053540346,0.0,0.0,0.0,0.0,0.0,0.0,0.0,0.0,0.0
1753722554342735745,142876,1753722554342735745,imu_link,0.0,0.0,0.0,0.0,-1.0,0.0,0.0,0.0,0.0,0.0,0.0,0.0,0.0,-0.018036216235772003,0.020800953981234452,-0.0032684701268254892,0.0,0.0,0.0,0.0,0.0,0.0,0.0,0.0,0.0,-0.4122425602468873,0.2807715601339722,9.84973587351105,0.0,0.0,0.0,0.0,0.0,0.0,0.0,0.0,0.0
1753722554347901856,142877,1753722554347901856,imu_link,0.0,0.0,0.0,0.0,-1.0,0.0,0.0,0.0,0.0,0.0,0.0,0.0,0.0,-0.022202453208665703,0.014639115556926369,-0.003016628146675122,0.0,0.0,0.0,0.0,0.0,0.0,0.0,0.0,0.0,-0.2932793484469605,0.2433530612277222,9.710162475994876,0.0,0.0,0.0,0.0,0.0,0.0,0.0,0.0,0.0
1753722554352802930,142878,1753722554352802930,imu_link,0.0,0.0,0.0,0.0,-1.0,0.0,0.0,0.0,0.0,0.0,0.0,0.0,0.0,-0.016737260713042677,0.01059046106366963,-0.0027608156394155316,0.0,0.0,0.0,0.0,0.0,0.0,0.0,0.0,0.0,-0.11242129518371584,0.177216352828064,9.642845246611635,0.0,0.0,0.0,0.0,0.0,0.0,0.0,0.0,0.0
1753722554357834926,142879,1753722554357834926,imu_link,0.0,0.0,0.0,0.0,-1.0,0.0,0.0,0.0,0.0,0.0,0.0,0.0,0.0,-0.007037416318573834,0.008941941786876144,-0.0020552804107085037,0.0,0.0,0.0,0.0,0.0,0.0,0.0,0.0,0.0,-0.052173963737792976,0.15495171390960696,9.660546477310792,0.0,0.0,0.0,0.0,0.0,0.0,0.0,0.0,0.0
1753722554363849213,142880,1753722554363849213,imu_link,0.0,0.0,0.0,0.0,-1.0,0.0,0.0,0.0,0.0,0.0,0.0,0.0,0.0,-0.00034378550729545346,0.008171675668040902,-0.0013067795593805303,0.0,0.0,0.0,0.0,0.0,0.0,0.0,0.0,0.0,-0.08573648116027834,0.21417378834960943,9.803018295356752,0.0,0.0,0.0,0.0,0.0,0.0,0.0,0.0,0.0
1753722554368775247,142881,1753722554368775247,imu_link,0.0,0.0,0.0,0.0,-1.0,0.0,0.0,0.0,0.0,0.0,0.0,0.0,0.0,-0.008355974301360689,0.008211284097008522,-0.0007605617309310924,0.0,0.0,0.0,0.0,0.0,0.0,0.0,0.0,0.0,-0.15631257813323976,0.30618756698760996,9.86687087551758,0.0,0.0,0.0,0.0,0.0,0.0,0.0,0.0,0.0
1753722554373839736,142882,1753722554373839736,imu_link,0.0,0.0,0.0,0.0,-1.0,0.0,0.0,0.0,0.0,0.0,0.0,0.0,0.0,-0.022548901874388076,0.007565254318789012,-0.0010405282781051255,0.0,0.0,0.0,0.0,0.0,0.0,0.0,0.0,0.0,-0.2665200148968506,0.36288417766143805,9.822831990035708,0.0,0.0,0.0,0.0,0.0,0.0,0.0,0.0,0.0
1753722554378740112,142883,1753722554378740112,imu_link,0.0,0.0,0.0,0.0,-1.0,0.0,0.0,0.0,0.0,0.0,0.0,0.0,0.0,-0.025402185602457023,0.0057960294038397215,-0.0013715386951284232,0.0,0.0,0.0,0.0,0.0,0.0,0.0,0.0,0.0,-0.296389715678711,0.38821483122589123,9.663625121370547,0.0,0.0,0.0,0.0,0.0,0.0,0.0,0.0,0.0
1753722554383732826,142884,1753722554383732826,imu_link,0.0,0.0,0.0,0.0,-1.0,0.0,0.0,0.0,0.0,0.0,0.0,0.0,0.0,-0.01952590232293098,0.003416545770450664,-0.0012798453434719262,0.0,0.0,0.0,0.0,0.0,0.0,0.0,0.0,0.0,-0.32732561431488044,0.4053596494592286,9.465137962733158,0.0,0.0,0.0,0.0,0.0,0.0,0.0,0.0,0.0
1753722554388746065,142885,1753722554388746065,imu_link,0.0,0.0,0.0,0.0,-1.0,0.0,0.0,0.0,0.0,0.0,0.0,0.0,0.0,-0.01489410490612673,-0.0001442584498799253,-0.0011360025077101412,0.0,0.0,0.0,0.0,0.0,0.0,0.0,0.0,0.0,-0.39248046061370856,0.46358555644348154,9.217461332437441,0.0,0.0,0.0,0.0,0.0,0.0,0.0,0.0,0.0
1753722554393825093,142886,1753722554393825093,imu_link,0.0,0.0,0.0,0.0,-1.0,0.0,0.0,0.0,0.0,0.0,0.0,0.0,0.0,-0.01064828388224196,-0.0022344625517777875,-0.0013156002628975651,0.0,0.0,0.0,0.0,0.0,0.0,0.0,0.0,0.0,-0.36841113233886724,0.5140925572753907,9.08435790577759,0.0,0.0,0.0,0.0,0.0,0.0,0.0,0.0,0.0
1753722554398767480,142887,1753722554398767480,imu_link,0.0,0.0,0.0,0.0,-1.0,0.0,0.0,0.0,0.0,0.0,0.0,0.0,0.0,-0.011018418517609799,-0.002681986149978754,-0.0015189283737042402,0.0,0.0,0.0,0.0,0.0,0.0,0.0,0.0,0.0,-0.4510480800299073,0.47091821801300054,8.999488784023745,0.0,0.0,0.0,0.0,0.0,0.0,0.0,0.0,0.0
1753722554403741215,142888,1753722554403741215,imu_link,0.0,0.0,0.0,0.0,-1.0,0.0,0.0,0.0,0.0,0.0,0.0,0.0,0.0,-0.007183317049483693,-0.003251046614571804,-0.0012919990301111346,0.0,0.0,0.0,0.0,0.0,0.0,0.0,0.0,0.0,-0.4230610597235109,0.42209769283050547,8.996883473632204,0.0,0.0,0.0,0.0,0.0,0.0,0.0,0.0,0.0
1753722554409378591,142889,1753722554409378591,imu_link,0.0,0.0,0.0,0.0,-1.0,0.0,0.0,0.0,0.0,0.0,0.0,0.0,0.0,-0.003762603032586049,-0.0044226950943173915,-0.0008093580564715791,0.0,0.0,0.0,0.0,0.0,0.0,0.0,0.0,0.0,-0.4661980494400026,0.3908578502935792,9.14047787298157,0.0,0.0,0.0,0.0,0.0,0.0,0.0,0.0,0.0
1753722554413878513,142890,1753722554413878513,imu_link,0.0,0.0,0.0,0.0,-1.0,0.0,0.0,0.0,0.0,0.0,0.0,0.0,0.0,-0.00478838709721851,-0.0058677652076484345,-0.0007715412068093413,0.0,0.0,0.0,0.0,0.0,0.0,0.0,0.0,0.0,-0.5187628067437745,0.3500846558761597,9.261817090509036,0.0,0.0,0.0,0.0,0.0,0.0,0.0,0.0,0.0
1753722554418891846,142891,1753722554418891846,imu_link,0.0,0.0,0.0,0.0,-1.0,0.0,0.0,0.0,0.0,0.0,0.0,0.0,0.0,0.00326892205674036,-0.006792018374798905,-0.0012844049935058922,0.0,0.0,0.0,0.0,0.0,0.0,0.0,0.0,0.0,-0.4598052317321778,0.34410537665008556,9.445824895621339,0.0,0.0,0.0,0.0,0.0,0.0,0.0,0.0,0.0
1753722554423804050,142892,1753722554423804050,imu_link,0.0,0.0,0.0,0.0,-1.0,0.0,0.0,0.0,0.0,0.0,0.0,0.0,0.0,0.0037272758325441273,-0.007393524986226573,-0.0014073783514131004,0.0,0.0,0.0,0.0,0.0,0.0,0.0,0.0,0.0,-0.46044095212799085,0.3738806261764527,9.508396398328859,0.0,0.0,0.0,0.0,0.0,0.0,0.0,0.0,0.0
1753722554429008060,142893,1753722554429008060,imu_link,0.0,0.0,0.0,0.0,-1.0,0.0,0.0,0.0,0.0,0.0,0.0,0.0,0.0,-0.0008650624535679503,-0.007476490441402125,-0.0007347129538358839,0.0,0.0,0.0,0.0,0.0,0.0,0.0,0.0,0.0,-0.39411707701354987,0.4373480391452027,9.434789541329348,0.0,0.0,0.0,0.0,0.0,0.0,0.0,0.0,0.0
1753722554433907785,142894,1753722554433907785,imu_link,0.0,0.0,0.0,0.0,-1.0,0.0,0.0,0.0,0.0,0.0,0.0,0.0,0.0,-0.0035789742239615173,-0.0055206951382931165,-0.00016057634787758744,0.0,0.0,0.0,0.0,0.0,0.0,0.0,0.0,0.0,-0.30499280050415045,0.5786542401129152,9.335170401552736,0.0,0.0,0.0,0.0,0.0,0.0,0.0,0.0,0.0
1753722554438811626,142895,1753722554438811626,imu_link,0.0,0.0,0.0,0.0,-1.0,0.0,0.0,0.0,0.0,0.0,0.0,0.0,0.0,-0.004223716808941349,-0.0017393087686202427,2.101474104149957e-05,0.0,0.0,0.0,0.0,0.0,0.0,0.0,0.0,0.0,-0.3356713224618531,0.6250382461209107,9.043961678411563,0.0,0.0,0.0,0.0,0.0,0.0,0.0,0.0,0.0
1753722554443795345,142896,1753722554443795345,imu_link,0.0,0.0,0.0,0.0,-1.0,0.0,0.0,0.0,0.0,0.0,0.0,0.0,0.0,0.0081842368986212,0.003344955229828873,-0.0004745022000833526,0.0,0.0,0.0,0.0,0.0,0.0,0.0,0.0,0.0,-0.34031745034851085,0.5846957685821534,8.811939176540529,0.0,0.0,0.0,0.0,0.0,0.0,0.0,0.0,0.0
1753722554447900271,142897,1753722554447900271,imu_link,0.0,0.0,0.0,0.0,-1.0,0.0,0.0,0.0,0.0,0.0,0.0,0.0,0.0,0.016729969308076856,0.006530048322449197,-0.000776201734056448,0.0,0.0,0.0,0.0,0.0,0.0,0.0,0.0,0.0,-0.44290809366058354,0.609535191820984,8.776895007420656,0.0,0.0,0.0,0.0,0.0,0.0,0.0,0.0,0.0
1753722554453827823,142898,1753722554453827823,imu_link,0.0,0.0,0.0,0.0,-1.0,0.0,0.0,0.0,0.0,0.0,0.0,0.0,0.0,0.011980996955576736,0.00761177485440104,-0.00037276551308655366,0.0,0.0,0.0,0.0,0.0,0.0,0.0,0.0,0.0,-0.5503602232986451,0.550052209255066,8.983082038307192,0.0,0.0,0.0,0.0,0.0,0.0,0.0,0.0,0.0
1753722554457891017,142899,1753722554457891017,imu_link,0.0,0.0,0.0,0.0,-1.0,0.0,0.0,0.0,0.0,0.0,0.0,0.0,0.0,0.010177146945988985,0.008662850853912173,-0.0006727138186395242,0.0,0.0,0.0,0.0,0.0,0.0,0.0,0.0,0.0,-0.5592257126260377,0.38508207820861823,9.21269687113373,0.0,0.0,0.0,0.0,0.0,0.0,0.0,0.0,0.0
1753722554462827431,142900,1753722554462827431,imu_link,0.0,0.0,0.0,0.0,-1.0,0.0,0.0,0.0,0.0,0.0,0.0,0.0,0.0,0.013941456821021377,0.008887758618153935,-0.001394917998045944,0.0,0.0,0.0,0.0,0.0,0.0,0.0,0.0,0.0,-0.4692489806155396,0.3057828271969605,9.474393647076113,0.0,0.0,0.0,0.0,0.0,0.0,0.0,0.0,0.0
1753722554467908507,142901,1753722554467908507,imu_link,0.0,0.0,0.0,0.0,-1.0,0.0,0.0,0.0,0.0,0.0,0.0,0.0,0.0,0.019166710847644652,0.0074133251656218575,-0.002211632020899753,0.0,0.0,0.0,0.0,0.0,0.0,0.0,0.0,0.0,-0.34701654630371104,0.26031771578613283,9.799522461657716,0.0,0.0,0.0,0.0,0.0,0.0,0.0,0.0,0.0
1753722554472911079,142902,1753722554472911079,imu_link,0.0,0.0,0.0,0.0,-1.0,0.0,0.0,0.0,0.0,0.0,0.0,0.0,0.0,0.020595011133063168,0.0054861709208677955,-0.002523951907872316,0.0,0.0,0.0,0.0,0.0,0.0,0.0,0.0,0.0,-0.3017375840719605,0.30160416718444827,10.010696554747318,0.0,0.0,0.0,0.0,0.0,0.0,0.0,0.0,0.0
1753722554477898607,142903,1753722554477898607,imu_link,0.0,0.0,0.0,0.0,-1.0,0.0,0.0,0.0,0.0,0.0,0.0,0.0,0.0,0.0164063955592063,0.0038980528842145167,-0.0021382660413266836,0.0,0.0,0.0,0.0,0.0,0.0,0.0,0.0,0.0,-0.29121434951507574,0.32841192346313486,10.235129257790529,0.0,0.0,0.0,0.0,0.0,0.0,0.0,0.0,0.0
1753722554483067728,142904,1753722554483067728,imu_link,0.0,0.0,0.0,0.0,-1.0,0.0,0.0,0.0,0.0,0.0,0.0,0.0,0.0,0.007126063178393478,0.0029016604044027707,-0.0022441104484425775,0.0,0.0,0.0,0.0,0.0,0.0,0.0,0.0,0.0,-0.36885220413970954,0.3282856293255616,10.223512471625368,0.0,0.0,0.0,0.0,0.0,0.0,0.0,0.0,0.0
1753722554487890444,142905,1753722554487890444,imu_link,0.0,0.0,0.0,0.0,-1.0,0.0,0.0,0.0,0.0,0.0,0.0,0.0,0.0,0.006441494269665642,0.0028800040842856954,-0.0029672467332984187,0.0,0.0,0.0,0.0,0.0,0.0,0.0,0.0,0.0,-0.3761801371609498,0.37364377977722174,10.176644477751772,0.0,0.0,0.0,0.0,0.0,0.0,0.0,0.0,0.0
1753722554492750155,142906,1753722554492750155,imu_link,0.0,0.0,0.0,0.0,-1.0,0.0,0.0,0.0,0.0,0.0,0.0,0.0,0.0,0.007915358774715607,0.001995936363762011,-0.003375254709567856,0.0,0.0,0.0,0.0,0.0,0.0,0.0,0.0,0.0,-0.4203264025872804,0.42708786749572764,10.19252168591614,0.0,0.0,0.0,0.0,0.0,0.0,0.0,0.0,0.0
1753722554497882443,142907,1753722554497882443,imu_link,0.0,0.0,0.0,0.0,-1.0,0.0,0.0,0.0,0.0,0.0,0.0,0.0,0.0,0.006705033971451821,-9.560335243783589e-05,-0.002714113524819849,0.0,0.0,0.0,0.0,0.0,0.0,0.0,0.0,0.0,-0.4643599011154176,0.4768169922082521,10.117557795415651,0.0,0.0,0.0,0.0,0.0,0.0,0.0,0.0,0.0
1753722554502778960,142908,1753722554502778960,imu_link,0.0,0.0,0.0,0.0,-1.0,0.0,0.0,0.0,0.0,0.0,0.0,0.0,0.0,0.007767105587195304,-0.0014407929194938719,-0.0017592421059368724,0.0,0.0,0.0,0.0,0.0,0.0,0.0,0.0,0.0,-0.4552914433422852,0.4909808498095704,10.168432246347352,0.0,0.0,0.0,0.0,0.0,0.0,0.0,0.0,0.0
1753722554508128377,142909,1753722554508128377,imu_link,0.0,0.0,0.0,0.0,-1.0,0.0,0.0,0.0,0.0,0.0,0.0,0.0,0.0,0.0036398556396362767,-0.0021835397345842922,-0.0011677344438757234,0.0,0.0,0.0,0.0,0.0,0.0,0.0,0.0,0.0,-0.4159122129864503,0.46227724494628913,10.116524038993838,0.0,0.0,0.0,0.0,0.0,0.0,0.0,0.0,0.0
1753722554512982565,142910,1753722554512982565,imu_link,0.0,0.0,0.0,0.0,-1.0,0.0,0.0,0.0,0.0,0.0,0.0,0.0,0.0,0.003073260614132389,-0.0009557066822077826,-0.0010379982775995532,0.0,0.0,0.0,0.0,0.0,0.0,0.0,0.0,0.0,-0.3597587868142701,0.39658118936218273,10.112370518098757,0.0,0.0,0.0,0.0,0.0,0.0,0.0,0.0,0.0
1753722554518841730,142911,1753722554518841730,imu_link,0.0,0.0,0.0,0.0,-1.0,0.0,0.0,0.0,0.0,0.0,0.0,0.0,0.0,0.004348336482967017,0.0017061322707624836,-0.0007435740082381751,0.0,0.0,0.0,0.0,0.0,0.0,0.0,0.0,0.0,-0.3278141511636353,0.3486879384826661,10.171040549490968,0.0,0.0,0.0,0.0,0.0,0.0,0.0,0.0,0.0
1753722554523785488,142912,1753722554523785488,imu_link,0.0,0.0,0.0,0.0,-1.0,0.0,0.0,0.0,0.0,0.0,0.0,0.0,0.0,0.00017666828091781405,0.002747883180690876,-0.0001017972133246834,0.0,0.0,0.0,0.0,0.0,0.0,0.0,0.0,0.0,-0.31321239407867435,0.3450426467449952,10.253205839454958,0.0,0.0,0.0,0.0,0.0,0.0,0.0,0.0,0.0
1753722554528711558,142913,1753722554528711558,imu_link,0.0,0.0,0.0,0.0,-1.0,0.0,0.0,0.0,0.0,0.0,0.0,0.0,0.0,-0.00556657409482957,0.0038899827071632496,-0.0004340544727024018,0.0,0.0,0.0,0.0,0.0,0.0,0.0,0.0,0.0,-0.37655028073760993,0.26787034463317877,10.289030757736208,0.0,0.0,0.0,0.0,0.0,0.0,0.0,0.0,0.0
1753722554533857371,142914,1753722554533857371,imu_link,0.0,0.0,0.0,0.0,-1.0,0.0,0.0,0.0,0.0,0.0,0.0,0.0,0.0,-0.007794794364658202,0.005163739102049994,-0.001262789024274073,0.0,0.0,0.0,0.0,0.0,0.0,0.0,0.0,0.0,-0.38875657920654305,0.20776463021545413,10.22623036934998,0.0,0.0,0.0,0.0,0.0,0.0,0.0,0.0,0.0
1753722554538767744,142915,1753722554538767744,imu_link,0.0,0.0,0.0,0.0,-1.0,0.0,0.0,0.0,0.0,0.0,0.0,0.0,0.0,-0.007316313567288574,0.005855454152556727,-0.0018151563276365766,0.0,0.0,0.0,0.0,0.0,0.0,0.0,0.0,0.0,-0.4067930579931642,0.24995740665222174,10.273596776154177,0.0,0.0,0.0,0.0,0.0,0.0,0.0,0.0,0.0
1753722554543710106,142916,1753722554543710106,imu_link,0.0,0.0,0.0,0.0,-1.0,0.0,0.0,0.0,0.0,0.0,0.0,0.0,0.0,-0.008846798434530229,0.006880495760900471,-0.0016125545327645154,0.0,0.0,0.0,0.0,0.0,0.0,0.0,0.0,0.0,-0.43895592512512216,0.2872423689608765,10.18807607241852,0.0,0.0,0.0,0.0,0.0,0.0,0.0,0.0,0.0
1753722554548746282,142917,1753722554548746282,imu_link,0.0,0.0,0.0,0.0,-1.0,0.0,0.0,0.0,0.0,0.0,0.0,0.0,0.0,-0.008191976198413364,0.008523918720886084,-0.0014280137941331903,0.0,0.0,0.0,0.0,0.0,0.0,0.0,0.0,0.0,-0.44425435325408946,0.3664587207400513,10.027622602803957,0.0,0.0,0.0,0.0,0.0,0.0,0.0,0.0,0.0
1753722554553808913,142918,1753722554553808913,imu_link,0.0,0.0,0.0,0.0,-1.0,0.0,0.0,0.0,0.0,0.0,0.0,0.0,0.0,-0.00930816238637412,0.010965030261327141,-0.0016575498049138555,0.0,0.0,0.0,0.0,0.0,0.0,0.0,0.0,0.0,-0.49152858329437266,0.4566633208935548,9.794367925048524,0.0,0.0,0.0,0.0,0.0,0.0,0.0,0.0,0.0
1753722554558770428,142919,1753722554558770428,imu_link,0.0,0.0,0.0,0.0,-1.0,0.0,0.0,0.0,0.0,0.0,0.0,0.0,0.0,-0.011465139133194167,0.014363018659648417,-0.0018764977434032578,0.0,0.0,0.0,0.0,0.0,0.0,0.0,0.0,0.0,-0.5483241343518068,0.4174717959478761,9.555733595872805,0.0,0.0,0.0,0.0,0.0,0.0,0.0,0.0,0.0
1753722554563731481,142920,1753722554563731481,imu_link,0.0,0.0,0.0,0.0,-1.0,0.0,0.0,0.0,0.0,0.0,0.0,0.0,0.0,-0.008843832644463888,0.01763073018983109,-0.00201420724460608,0.0,0.0,0.0,0.0,0.0,0.0,0.0,0.0,0.0,-0.5644499205035401,0.3719093003845215,9.504477628906557,0.0,0.0,0.0,0.0,0.0,0.0,0.0,0.0,0.0
1753722554568714574,142921,1753722554568714574,imu_link,0.0,0.0,0.0,0.0,-1.0,0.0,0.0,0.0,0.0,0.0,0.0,0.0,0.0,-0.011366646657371976,0.01943990248118415,-0.001689640863958219,0.0,0.0,0.0,0.0,0.0,0.0,0.0,0.0,0.0,-0.5672784901998903,0.3354645232934571,9.616224238062442,0.0,0.0,0.0,0.0,0.0,0.0,0.0,0.0,0.0
1753722554573718812,142922,1753722554573718812,imu_link,0.0,0.0,0.0,0.0,-1.0,0.0,0.0,0.0,0.0,0.0,0.0,0.0,0.0,-0.013847523995233153,0.02074010081117937,-0.0016033061098637634,0.0,0.0,0.0,0.0,0.0,0.0,0.0,0.0,0.0,-0.554900886602173,0.2531887409228516,9.785841933516542,0.0,0.0,0.0,0.0,0.0,0.0,0.0,0.0,0.0
1753722554578877702,142923,1753722554578877702,imu_link,0.0,0.0,0.0,0.0,-1.0,0.0,0.0,0.0,0.0,0.0,0.0,0.0,0.0,-0.009390098893975634,0.022203486191328267,-0.0018942077469422634,0.0,0.0,0.0,0.0,0.0,0.0,0.0,0.0,0.0,-0.5135875602902222,0.18247378025360111,9.964179371271975,0.0,0.0,0.0,0.0,0.0,0.0,0.0,0.0,0.0
1753722554583771314,142924,1753722554583771314,imu_link,0.0,0.0,0.0,0.0,-1.0,0.0,0.0,0.0,0.0,0.0,0.0,0.0,0.0,-0.007915213511528685,0.02257742591517578,-0.0019205286293949712,0.0,0.0,0.0,0.0,0.0,0.0,0.0,0.0,0.0,-0.46780850918670663,0.12714198423614506,10.141117218591921,0.0,0.0,0.0,0.0,0.0,0.0,0.0,0.0,0.0
1753722554588766602,142925,1753722554588766602,imu_link,0.0,0.0,0.0,0.0,-1.0,0.0,0.0,0.0,0.0,0.0,0.0,0.0,0.0,-0.012417702481440479,0.02152549851198574,-0.0018917180973219475,0.0,0.0,0.0,0.0,0.0,0.0,0.0,0.0,0.0,-0.37504881702148446,0.08902581496612551,10.217396184209292,0.0,0.0,0.0,0.0,0.0,0.0,0.0,0.0,0.0
1753722554593787834,142926,1753722554593787834,imu_link,0.0,0.0,0.0,0.0,-1.0,0.0,0.0,0.0,0.0,0.0,0.0,0.0,0.0,-0.01834169664769362,0.019243708406890794,-0.0018798024809057517,0.0,0.0,0.0,0.0,0.0,0.0,0.0,0.0,0.0,-0.26412437671569833,0.1590464571539307,10.256043147987368,0.0,0.0,0.0,0.0,0.0,0.0,0.0,0.0,0.0
1753722554597869764,142927,1753722554597869764,imu_link,0.0,0.0,0.0,0.0,-1.0,0.0,0.0,0.0,0.0,0.0,0.0,0.0,0.0,-0.023537651896532272,0.015993073371348608,-0.0017392845580890886,0.0,0.0,0.0,0.0,0.0,0.0,0.0,0.0,0.0,-0.24911967549133304,0.21857283462493898,10.207272003214113,0.0,0.0,0.0,0.0,0.0,0.0,0.0,0.0,0.0
1753722554603829130,142928,1753722554603829130,imu_link,0.0,0.0,0.0,0.0,-1.0,0.0,0.0,0.0,0.0,0.0,0.0,0.0,0.0,-0.020402501094593715,0.013845369257960467,-0.002133754812355025,0.0,0.0,0.0,0.0,0.0,0.0,0.0,0.0,0.0,-0.22806925594482425,0.2187045157162476,10.061146693289796,0.0,0.0,0.0,0.0,0.0,0.0,0.0,0.0,0.0
1753722554608125207,142929,1753722554608125207,imu_link,0.0,0.0,0.0,0.0,-1.0,0.0,0.0,0.0,0.0,0.0,0.0,0.0,0.0,-0.015811942282521443,0.01156209424028809,-0.002090869891504592,0.0,0.0,0.0,0.0,0.0,0.0,0.0,0.0,0.0,-0.21142177325134281,0.26459447821167,9.922864009888613,0.0,0.0,0.0,0.0,0.0,0.0,0.0,0.0,0.0
1753722554612872417,142930,1753722554612872417,imu_link,0.0,0.0,0.0,0.0,-1.0,0.0,0.0,0.0,0.0,0.0,0.0,0.0,0.0,-0.02052066462697837,0.008188925671487985,-0.0016980459533571138,0.0,0.0,0.0,0.0,0.0,0.0,0.0,0.0,0.0,-0.215078976142273,0.26756047508331304,9.7749478371225,0.0,0.0,0.0,0.0,0.0,0.0,0.0,0.0,0.0
1753722554617872551,142931,1753722554617872551,imu_link,0.0,0.0,0.0,0.0,-1.0,0.0,0.0,0.0,0.0,0.0,0.0,0.0,0.0,-0.02048892058554721,0.006379938994207103,-0.0014657136262281848,0.0,0.0,0.0,0.0,0.0,0.0,0.0,0.0,0.0,-0.2375209056936646,0.20740933068908696,9.70308707139374,0.0,0.0,0.0,0.0,0.0,0.0,0.0,0.0,0.0
1753722554622943920,142932,1753722554622943920,imu_link,0.0,0.0,0.0,0.0,-1.0,0.0,0.0,0.0,0.0,0.0,0.0,0.0,0.0,-0.01479274751745134,0.006024455765275837,-0.0010350244173561612,0.0,0.0,0.0,0.0,0.0,0.0,0.0,0.0,0.0,-0.35737458094604496,0.19387490870422366,9.791238104928286,0.0,0.0,0.0,0.0,0.0,0.0,0.0,0.0,0.0
1753722554627888156,142933,1753722554627888156,imu_link,0.0,0.0,0.0,0.0,-1.0,0.0,0.0,0.0,0.0,0.0,0.0,0.0,0.0,-0.011351611917525466,0.006089759637974691,-0.001015317044996967,0.0,0.0,0.0,0.0,0.0,0.0,0.0,0.0,0.0,-0.43626412419860855,0.18879776466369633,9.902775281293948,0.0,0.0,0.0,0.0,0.0,0.0,0.0,0.0,0.0
1753722554632753656,142934,1753722554632753656,imu_link,0.0,0.0,0.0,0.0,-1.0,0.0,0.0,0.0,0.0,0.0,0.0,0.0,0.0,-0.010959054295220679,0.006801508903011194,-0.0010820816197420998,0.0,0.0,0.0,0.0,0.0,0.0,0.0,0.0,0.0,-0.48595272704803477,0.24437754011810306,10.007410213693545,0.0,0.0,0.0,0.0,0.0,0.0,0.0,0.0,0.0
1753722554637960683,142935,1753722554637960683,imu_link,0.0,0.0,0.0,0.0,-1.0,0.0,0.0,0.0,0.0,0.0,0.0,0.0,0.0,-0.018912149217828012,0.006497436736985026,-0.0011315033840040597,0.0,0.0,0.0,0.0,0.0,0.0,0.0,0.0,0.0,-0.5446262898876955,0.2781265059948731,10.078129184650576,0.0,0.0,0.0,0.0,0.0,0.0,0.0,0.0,0.0
1753722554642848374,142936,1753722554642848374,imu_link,0.0,0.0,0.0,0.0,-1.0,0.0,0.0,0.0,0.0,0.0,0.0,0.0,0.0,-0.028765859607956315,0.005684995872879863,-0.0014006276483097156,0.0,0.0,0.0,0.0,0.0,0.0,0.0,0.0,0.0,-0.5283565523611452,0.28146474136962896,10.042450552090761,0.0,0.0,0.0,0.0,0.0,0.0,0.0,0.0,0.0
1753722554647890021,142937,1753722554647890021,imu_link,0.0,0.0,0.0,0.0,-1.0,0.0,0.0,0.0,0.0,0.0,0.0,0.0,0.0,-0.030776092290364643,0.004258487166766734,-0.0018188080827522748,0.0,0.0,0.0,0.0,0.0,0.0,0.0,0.0,0.0,-0.48605783250091567,0.23655257083221443,9.983080515988162,0.0,0.0,0.0,0.0,0.0,0.0,0.0,0.0,0.0
1753722554652767382,142938,1753722554652767382,imu_link,0.0,0.0,0.0,0.0,-1.0,0.0,0.0,0.0,0.0,0.0,0.0,0.0,0.0,-0.025323912955236786,0.0021027169114158518,-0.002295791862278892,0.0,0.0,0.0,0.0,0.0,0.0,0.0,0.0,0.0,-0.47680430293945325,0.20193002062469487,9.921126118758547,0.0,0.0,0.0,0.0,0.0,0.0,0.0,0.0,0.0
1753722554657885313,142939,1753722554657885313,imu_link,0.0,0.0,0.0,0.0,-1.0,0.0,0.0,0.0,0.0,0.0,0.0,0.0,0.0,-0.01658985085902423,0.0007735789265147864,-0.0025608568275277605,0.0,0.0,0.0,0.0,0.0,0.0,0.0,0.0,0.0,-0.43108019876403825,0.21240231854125982,9.894880102044375,0.0,0.0,0.0,0.0,0.0,0.0,0.0,0.0,0.0
1753722554662781151,142940,1753722554662781151,imu_link,0.0,0.0,0.0,0.0,-1.0,0.0,0.0,0.0,0.0,0.0,0.0,0.0,0.0,-0.017766551269603914,0.0006071799458947096,-0.0027789533623382543,0.0,0.0,0.0,0.0,0.0,0.0,0.0,0.0,0.0,-0.40743967200653086,0.2039181656832886,9.912376867921754,0.0,0.0,0.0,0.0,0.0,0.0,0.0,0.0,0.0
1753722554667885399,142941,1753722554667885399,imu_link,0.0,0.0,0.0,0.0,-1.0,0.0,0.0,0.0,0.0,0.0,0.0,0.0,0.0,-0.021647204852095897,0.0004705921993020136,-0.003255686966376282,0.0,0.0,0.0,0.0,0.0,0.0,0.0,0.0,0.0,-0.37794604045043956,0.13907719922210696,9.939697043210757,0.0,0.0,0.0,0.0,0.0,0.0,0.0,0.0,0.0
1753722554673758638,142942,1753722554673758638,imu_link,0.0,0.0,0.0,0.0,-1.0,0.0,0.0,0.0,0.0,0.0,0.0,0.0,0.0,-0.01962477006198605,0.00029013900534715536,-0.0036556247655944525,0.0,0.0,0.0,0.0,0.0,0.0,0.0,0.0,0.0,-0.42970059991241466,0.10429154402648928,10.048864738048403,0.0,0.0,0.0,0.0,0.0,0.0,0.0,0.0,0.0
1753722554678754884,142943,1753722554678754884,imu_link,0.0,0.0,0.0,0.0,-1.0,0.0,0.0,0.0,0.0,0.0,0.0,0.0,0.0,-0.018254183647749677,-9.567194894277166e-06,-0.00407783625347412,0.0,0.0,0.0,0.0,0.0,0.0,0.0,0.0,0.0,-0.47234881335998546,0.09571485527435304,10.201842731964419,0.0,0.0,0.0,0.0,0.0,0.0,0.0,0.0,0.0
1753722554683836660,142944,1753722554683836660,imu_link,0.0,0.0,0.0,0.0,-1.0,0.0,0.0,0.0,0.0,0.0,0.0,0.0,0.0,-0.021813297165988028,-0.00015026266160606807,-0.004098423275131902,0.0,0.0,0.0,0.0,0.0,0.0,0.0,0.0,0.0,-0.4618638860296632,0.1599291394509888,10.290959107608339,0.0,0.0,0.0,0.0,0.0,0.0,0.0,0.0,0.0
1753722554688775180,142945,1753722554688775180,imu_link,0.0,0.0,0.0,0.0,-1.0,0.0,0.0,0.0,0.0,0.0,0.0,0.0,0.0,-0.029207681626070556,-0.0006359138112857462,-0.0036158952839710646,0.0,0.0,0.0,0.0,0.0,0.0,0.0,0.0,0.0,-0.4646339174954225,0.1805155627157593,10.309847144070437,0.0,0.0,0.0,0.0,0.0,0.0,0.0,0.0,0.0
1753722554693726884,142946,1753722554693726884,imu_link,0.0,0.0,0.0,0.0,-1.0,0.0,0.0,0.0,0.0,0.0,0.0,0.0,0.0,-0.030343373431964228,-0.0010975803947690585,-0.0032922166227988426,0.0,0.0,0.0,0.0,0.0,0.0,0.0,0.0,0.0,-0.4419922516705323,0.0956620032727051,10.185818100832828,0.0,0.0,0.0,0.0,0.0,0.0,0.0,0.0,0.0
1753722554698806397,142947,1753722554698806397,imu_link,0.0,0.0,0.0,0.0,-1.0,0.0,0.0,0.0,0.0,0.0,0.0,0.0,0.0,-0.026908774675449876,-0.0010416419625382005,-0.003245720297717967,0.0,0.0,0.0,0.0,0.0,0.0,0.0,0.0,0.0,-0.40916523299804697,0.08712003044464113,10.058554850282594,0.0,0.0,0.0,0.0,0.0,0.0,0.0,0.0,0.0
1753722554703817095,142948,1753722554703817095,imu_link,0.0,0.0,0.0,0.0,-1.0,0.0,0.0,0.0,0.0,0.0,0.0,0.0,0.0,-0.02976435033380139,-0.0011925663786624722,-0.0032517971410375717,0.0,0.0,0.0,0.0,0.0,0.0,0.0,0.0,0.0,-0.3668669919781495,0.12412804347625736,9.989987249082338,0.0,0.0,0.0,0.0,0.0,0.0,0.0,0.0,0.0
1753722554709834816,142949,1753722554709834816,imu_link,0.0,0.0,0.0,0.0,-1.0,0.0,0.0,0.0,0.0,0.0,0.0,0.0,0.0,-0.031500511733371636,-0.0005939045046453752,-0.003054586224435757,0.0,0.0,0.0,0.0,0.0,0.0,0.0,0.0,0.0,-0.32718016656402593,0.10604852891479494,9.913672849280397,0.0,0.0,0.0,0.0,0.0,0.0,0.0,0.0,0.0
1753722554713777909,142950,1753722554713777909,imu_link,0.0,0.0,0.0,0.0,-1.0,0.0,0.0,0.0,0.0,0.0,0.0,0.0,0.0,-0.026049074854532495,-9.102756204976743e-05,-0.002579636129526059,0.0,0.0,0.0,0.0,0.0,0.0,0.0,0.0,0.0,-0.3805105895587159,0.12576621610717775,9.888543667785648,0.0,0.0,0.0,0.0,0.0,0.0,0.0,0.0,0.0
1753722554718751034,142951,1753722554718751034,imu_link,0.0,0.0,0.0,0.0,-1.0,0.0,0.0,0.0,0.0,0.0,0.0,0.0,0.0,-0.02296362020287564,-7.874878766626451e-05,-0.002614261224164521,0.0,0.0,0.0,0.0,0.0,0.0,0.0,0.0,0.0,-0.38181943975128185,0.12963674236602787,9.87063354299164,0.0,0.0,0.0,0.0,0.0,0.0,0.0,0.0,0.0
1753722554723931807,142952,1753722554723931807,imu_link,0.0,0.0,0.0,0.0,-1.0,0.0,0.0,0.0,0.0,0.0,0.0,0.0,0.0,-0.02734154599000113,-0.00045847482845953606,-0.002511301905344455,0.0,0.0,0.0,0.0,0.0,0.0,0.0,0.0,0.0,-0.4008584904830933,0.15419167459259037,9.769428005195008,0.0,0.0,0.0,0.0,0.0,0.0,0.0,0.0,0.0
1753722554728733802,142953,1753722554728733802,imu_link,0.0,0.0,0.0,0.0,-1.0,0.0,0.0,0.0,0.0,0.0,0.0,0.0,0.0,-0.03520360124529312,-0.0019485160034087656,-0.0023912539866183307,0.0,0.0,0.0,0.0,0.0,0.0,0.0,0.0,0.0,-0.3937552532876588,0.1787012366976929,9.615194851058657,0.0,0.0,0.0,0.0,0.0,0.0,0.0,0.0,0.0
1753722554733733367,142954,1753722554733733367,imu_link,0.0,0.0,0.0,0.0,-1.0,0.0,0.0,0.0,0.0,0.0,0.0,0.0,0.0,-0.03555586850866945,-0.003514009298698817,-0.0020732930458869318,0.0,0.0,0.0,0.0,0.0,0.0,0.0,0.0,0.0,-0.32533651157562266,0.1863289836218262,9.409270823224489,0.0,0.0,0.0,0.0,0.0,0.0,0.0,0.0,0.0
1753722554738800964,142955,1753722554738800964,imu_link,0.0,0.0,0.0,0.0,-1.0,0.0,0.0,0.0,0.0,0.0,0.0,0.0,0.0,-0.029279086552620175,-0.005450452317238887,-0.0016027411974701745,0.0,0.0,0.0,0.0,0.0,0.0,0.0,0.0,0.0,-0.32666236059997567,0.20314765173400884,9.210474513297731,0.0,0.0,0.0,0.0,0.0,0.0,0.0,0.0,0.0
1753722554743790857,142956,1753722554743790857,imu_link,0.0,0.0,0.0,0.0,-1.0,0.0,0.0,0.0,0.0,0.0,0.0,0.0,0.0,-0.019757766579790934,-0.006745066084714632,-0.002018415841938316,0.0,0.0,0.0,0.0,0.0,0.0,0.0,0.0,0.0,-0.26345729227813725,0.1608376192709351,9.058363818933108,0.0,0.0,0.0,0.0,0.0,0.0,0.0,0.0,0.0
1753722554748850940,142957,1753722554748850940,imu_link,0.0,0.0,0.0,0.0,-1.0,0.0,0.0,0.0,0.0,0.0,0.0,0.0,0.0,-0.014734856102374076,-0.007335738483450974,-0.002356653102511023,0.0,0.0,0.0,0.0,0.0,0.0,0.0,0.0,0.0,-0.28759880573303226,0.09903453558624269,9.034600170355226,0.0,0.0,0.0,0.0,0.0,0.0,0.0,0.0,0.0
1753722554753943787,142958,1753722554753943787,imu_link,0.0,0.0,0.0,0.0,-1.0,0.0,0.0,0.0,0.0,0.0,0.0,0.0,0.0,-0.014093329482949172,-0.007814340333476371,-0.0030689632448525892,0.0,0.0,0.0,0.0,0.0,0.0,0.0,0.0,0.0,-0.29168193709930423,0.01410190763336182,9.208848670805361,0.0,0.0,0.0,0.0,0.0,0.0,0.0,0.0,0.0
1753722554757956924,142959,1753722554757956924,imu_link,0.0,0.0,0.0,0.0,-1.0,0.0,0.0,0.0,0.0,0.0,0.0,0.0,0.0,-0.012079545922638284,-0.008381851324075576,-0.0037531286447278615,0.0,0.0,0.0,0.0,0.0,0.0,0.0,0.0,0.0,-0.327763872928772,-0.05157607172821046,9.452263203160708,0.0,0.0,0.0,0.0,0.0,0.0,0.0,0.0,0.0
1753722554763778905,142960,1753722554763778905,imu_link,0.0,0.0,0.0,0.0,-1.0,0.0,0.0,0.0,0.0,0.0,0.0,0.0,0.0,-0.013054915591231479,-0.0094171218818318,-0.003546471585887539,0.0,0.0,0.0,0.0,0.0,0.0,0.0,0.0,0.0,-0.41184009494781504,-0.05139620732849122,9.659015983899538,0.0,0.0,0.0,0.0,0.0,0.0,0.0,0.0,0.0
1753722554767872515,142961,1753722554767872515,imu_link,0.0,0.0,0.0,0.0,-1.0,0.0,0.0,0.0,0.0,0.0,0.0,0.0,0.0,-0.011440141759777865,-0.010565181234056536,-0.0036472761674349167,0.0,0.0,0.0,0.0,0.0,0.0,0.0,0.0,0.0,-0.44932347671905526,-0.03308619100219727,9.779305224288942,0.0,0.0,0.0,0.0,0.0,0.0,0.0,0.0,0.0
1753722554772758079,142962,1753722554772758079,imu_link,0.0,0.0,0.0,0.0,-1.0,0.0,0.0,0.0,0.0,0.0,0.0,0.0,0.0,-0.012268480872674025,-0.010868559364856296,-0.0034306040188739713,0.0,0.0,0.0,0.0,0.0,0.0,0.0,0.0,0.0,-0.5074445775256349,0.103728128520813,9.740114657023929,0.0,0.0,0.0,0.0,0.0,0.0,0.0,0.0,0.0
1753722554777984567,142963,1753722554777984567,imu_link,0.0,0.0,0.0,0.0,-1.0,0.0,0.0,0.0,0.0,0.0,0.0,0.0,0.0,-0.01922134998137026,-0.011678930228547808,-0.0030871857046343505,0.0,0.0,0.0,0.0,0.0,0.0,0.0,0.0,0.0,-0.5681183162872315,0.22718609480743412,9.5800311514209,0.0,0.0,0.0,0.0,0.0,0.0,0.0,0.0,0.0
1753722554783076270,142964,1753722554783076270,imu_link,0.0,0.0,0.0,0.0,-1.0,0.0,0.0,0.0,0.0,0.0,0.0,0.0,0.0,-0.021319850225276823,-0.011870641319489185,-0.003178213266684118,0.0,0.0,0.0,0.0,0.0,0.0,0.0,0.0,0.0,-0.5509362083630372,0.3182218420672608,9.267248995380555,0.0,0.0,0.0,0.0,0.0,0.0,0.0,0.0,0.0
1753722554787951050,142965,1753722554787951050,imu_link,0.0,0.0,0.0,0.0,-1.0,0.0,0.0,0.0,0.0,0.0,0.0,0.0,0.0,-0.018208223989442714,-0.01084059216628513,-0.002911215494031471,0.0,0.0,0.0,0.0,0.0,0.0,0.0,0.0,0.0,-0.5182881562646485,0.366905538624878,8.960794235487672,0.0,0.0,0.0,0.0,0.0,0.0,0.0,0.0,0.0
1753722554792888005,142966,1753722554792888005,imu_link,0.0,0.0,0.0,0.0,-1.0,0.0,0.0,0.0,0.0,0.0,0.0,0.0,0.0,-0.009707773343421714,-0.009859867935218418,-0.002945396728932113,0.0,0.0,0.0,0.0,0.0,0.0,0.0,0.0,0.0,-0.5374078317373658,0.2849590188375855,8.833700913400271,0.0,0.0,0.0,0.0,0.0,0.0,0.0,0.0,0.0
1753722554797947674,142967,1753722554797947674,imu_link,0.0,0.0,0.0,0.0,-1.0,0.0,0.0,0.0,0.0,0.0,0.0,0.0,0.0,0.0032274655572280013,-0.007406421129154497,-0.0035346810572156376,0.0,0.0,0.0,0.0,0.0,0.0,0.0,0.0,0.0,-0.5508936514285279,0.16140223187744143,8.927877314542847,0.0,0.0,0.0,0.0,0.0,0.0,0.0,0.0,0.0
1753722554802889658,142968,1753722554802889658,imu_link,0.0,0.0,0.0,0.0,-1.0,0.0,0.0,0.0,0.0,0.0,0.0,0.0,0.0,0.004437515974472043,-0.0045971198660149535,-0.004053484494221922,0.0,0.0,0.0,0.0,0.0,0.0,0.0,0.0,0.0,-0.49790745477752696,0.07662827963958742,9.159113859863893,0.0,0.0,0.0,0.0,0.0,0.0,0.0,0.0,0.0
1753722554808213769,142969,1753722554808213769,imu_link,0.0,0.0,0.0,0.0,-1.0,0.0,0.0,0.0,0.0,0.0,0.0,0.0,0.0,-0.002842780392636726,-0.0030041435827768115,-0.004581637231342098,0.0,0.0,0.0,0.0,0.0,0.0,0.0,0.0,0.0,-0.35658455425323493,0.033085353031616214,9.414690038827212,0.0,0.0,0.0,0.0,0.0,0.0,0.0,0.0,0.0
1753722554812759162,142970,1753722554812759162,imu_link,0.0,0.0,0.0,0.0,-1.0,0.0,0.0,0.0,0.0,0.0,0.0,0.0,0.0,-0.008250896561064666,-0.0007099980366163783,-0.004726416207641829,0.0,0.0,0.0,0.0,0.0,0.0,0.0,0.0,0.0,-0.2483082206936646,-0.057073996710510264,9.603689036140443,0.0,0.0,0.0,0.0,0.0,0.0,0.0,0.0,0.0
1753722554817902415,142971,1753722554817902415,imu_link,0.0,0.0,0.0,0.0,-1.0,0.0,0.0,0.0,0.0,0.0,0.0,0.0,0.0,-0.008509735384718482,0.0022958765991379303,-0.004479460719696005,0.0,0.0,0.0,0.0,0.0,0.0,0.0,0.0,0.0,-0.1931644892166138,-0.12318119657470707,9.631667557030948,0.0,0.0,0.0,0.0,0.0,0.0,0.0,0.0,0.0
1753722554822770133,142972,1753722554822770133,imu_link,0.0,0.0,0.0,0.0,-1.0,0.0,0.0,0.0,0.0,0.0,0.0,0.0,0.0,-0.004567994597036931,0.004846738512387696,-0.0041576422343341,0.0,0.0,0.0,0.0,0.0,0.0,0.0,0.0,0.0,-0.20140102176788333,-0.03700268593292237,9.60344249322449,0.0,0.0,0.0,0.0,0.0,0.0,0.0,0.0,0.0
1753722554828732457,142973,1753722554828732457,imu_link,0.0,0.0,0.0,0.0,-1.0,0.0,0.0,0.0,0.0,0.0,0.0,0.0,0.0,-0.004673580758487184,0.0069896005195450766,-0.003749226714123574,0.0,0.0,0.0,0.0,0.0,0.0,0.0,0.0,0.0,-0.19758532272705082,0.11959581973358156,9.491385775098573,0.0,0.0,0.0,0.0,0.0,0.0,0.0,0.0,0.0
1753722554833942563,142974,1753722554833942563,imu_link,0.0,0.0,0.0,0.0,-1.0,0.0,0.0,0.0,0.0,0.0,0.0,0.0,0.0,-0.008049214766376449,0.007707858382373427,-0.003061167453821066,0.0,0.0,0.0,0.0,0.0,0.0,0.0,0.0,0.0,-0.2219088553631592,0.23839796161682134,9.281891633458864,0.0,0.0,0.0,0.0,0.0,0.0,0.0,0.0,0.0
1753722554838739146,142975,1753722554838739146,imu_link,0.0,0.0,0.0,0.0,-1.0,0.0,0.0,0.0,0.0,0.0,0.0,0.0,0.0,-0.006931224893844736,0.0062450621251492755,-0.0019692079373682145,0.0,0.0,0.0,0.0,0.0,0.0,0.0,0.0,0.0,-0.2796960248931885,0.2682110993844605,9.124917896537173,0.0,0.0,0.0,0.0,0.0,0.0,0.0,0.0,0.0
1753722554843758860,142976,1753722554843758860,imu_link,0.0,0.0,0.0,0.0,-1.0,0.0,0.0,0.0,0.0,0.0,0.0,0.0,0.0,-0.0012234065602638896,0.00394941149096878,-0.000906942637375501,0.0,0.0,0.0,0.0,0.0,0.0,0.0,0.0,0.0,-0.32948153305480965,0.25154045278991705,9.075828622218324,0.0,0.0,0.0,0.0,0.0,0.0,0.0,0.0,0.0
1753722554848777602,142977,1753722554848777602,imu_link,0.0,0.0,0.0,0.0,-1.0,0.0,0.0,0.0,0.0,0.0,0.0,0.0,0.0,0.008499215908932154,0.0010734989864480773,-0.00016648775256764058,0.0,0.0,0.0,0.0,0.0,0.0,0.0,0.0,0.0,-0.3410014737628175,0.2621095961636353,9.183079698771975,0.0,0.0,0.0,0.0,0.0,0.0,0.0,0.0,0.0
1753722554853811708,142978,1753722554853811708,imu_link,0.0,0.0,0.0,0.0,-1.0,0.0,0.0,0.0,0.0,0.0,0.0,0.0,0.0,0.012666590776790084,-0.001237376036739633,0.0001443754674471687,0.0,0.0,0.0,0.0,0.0,0.0,0.0,0.0,0.0,-0.3010533810925294,0.23796018184326176,9.33445615134247,0.0,0.0,0.0,0.0,0.0,0.0,0.0,0.0,0.0
1753722554858779987,142979,1753722554858779987,imu_link,0.0,0.0,0.0,0.0,-1.0,0.0,0.0,0.0,0.0,0.0,0.0,0.0,0.0,0.009926446895891372,-0.00015581494341733982,-0.00014773669618902145,0.0,0.0,0.0,0.0,0.0,0.0,0.0,0.0,0.0,-0.25693177594329836,0.11380532330841067,9.46672130814606,0.0,0.0,0.0,0.0,0.0,0.0,0.0,0.0,0.0
1753722554863750949,142980,1753722554863750949,imu_link,0.0,0.0,0.0,0.0,-1.0,0.0,0.0,0.0,0.0,0.0,0.0,0.0,0.0,0.0055924672578985596,0.0031907543218217867,-0.0005027034337890055,0.0,0.0,0.0,0.0,0.0,0.0,0.0,0.0,0.0,-0.23582467367248539,0.0323557200756836,9.584361484108584,0.0,0.0,0.0,0.0,0.0,0.0,0.0,0.0,0.0
